Time,P (deg/s),Q (deg/s),R (deg/s),P dot (deg/s^2),Q dot (deg/s^2),R dot (deg/s^2),P_{inertial} (deg/s),Q_{inertial} (deg/s),R_{inertial} (deg/s),q bar (psf),Reynolds Number,V_{Total} (ft/s),V_{Inertial} (ft/s),UBody,VBody,WBody,UdotBody,VdotBody,WdotBody,UdotBody_i,VdotBody_i,WdotBody_i,BodyAccel_X,BodyAccel_Y,BodyAccel_Z,Aero V_{X Body} (ft/s),Aero V_{Y Body} (ft/s),Aero V_{Z Body} (ft/s),V_{X_{inertial}} (ft/s),V_{Y_{inertial}} (ft/s),V_{Z_{inertial}} (ft/s),V_{X_{ecef}} (ft/s),V_{Y_{ecef}} (ft/s),V_{Z_{ecef}} (ft/s),V_{North} (ft/s),V_{East} (ft/s),V_{Down} (ft/s),I_{xx},I_{xy},I_{xz},I_{yx},I_{yy},I_{yz},I_{zx},I_{zy},I_{zz},Mass,Weight,X_{cg},Y_{cg},Z_{cg},Altitude ASL (ft),Altitude AGL (ft),Phi (deg),Theta (deg),Psi (deg),Q(1)_{LOCAL},Q(2)_{LOCAL},Q(3)_{LOCAL},Q(4)_{LOCAL},Q(1)_{ECEF},Q(2)_{ECEF},Q(3)_{ECEF},Q(4)_{ECEF},Q(1)_{ECI},Q(2)_{ECI},Q(3)_{ECI},Q(4)_{ECI},Alpha (deg),Beta (deg),Latitude (deg),Latitude Geodetic (deg),Longitude (deg),X_{ECI} (ft),Y_{ECI} (ft),Z_{ECI} (ft),X_{ECEF} (ft),Y_{ECEF} (ft),Z_{ECEF} (ft),Earth Position Angle (deg),Distance AGL (ft),Terrain Elevation (ft),navigation/actual-heading-rad,propulsion/tank[0]/contents-volume-gal,propulsion/tank[1]/contents-volume-gal,systems/mixture-cmd-norm,guidance/wp-heading-rad,guidance/wp-distance,guidance/wp-heading-deg,guidance/selected_target_heading,guidance/angle-to-heading-rad,ap/roll-control-autopilot-on,ap/roll-autopilot-windup-trigger,ap/limited-roll-angle-rad,ap/roll-attitude-selector,ap/limited-roll-angle-error,ap/roll-rate-pid-control,ap/total-limited-roll-rate,ap/roll-rate-saturation,ap/limited-roll-rate-error,ap/roll-command-pid-control,ap/roll-cmd-smoother,ap/roll-cmd-norm-output,ap/roll-command-selector-steering,fcs/attitude/sensor/phi-rad,fcs/wing-leveler-ap-on-off,fcs/roll-ap-error-pid,fcs/roll-ap-autoswitch,fcs/heading-true-degrees,fcs/heading-error,fcs/heading-error-bias-switch,fcs/heading-corrected,fcs/heading-command,fcs/heading-roll-error-lag,fcs/heading-roll-error,fcs/heading-roll-error-switch,fcs/heading-pi-controller,fcs/roll-command-selector,fcs/altitude-error,fcs/alt-error-lag,fcs/hdot-command,fcs/hdot-error,fcs/ap-alt-hold-switch,fcs/windup-trigger,fcs/altitude-hold-pid,fcs/elevator,fcs/pitch-trim-sum,fcs/elevator-control,fcs/elevator-actuator,fcs/roll-trim-sum,fcs/left-aileron-control,fcs/left-aileron-actuator,fcs/right-aileron-control,fcs/right-aileron-actuator,fcs/delta-aileron-pos,fcs/effective-aileron-pos,fcs/yaw-trim-sum,fcs/rudder-control,fcs/flaps-control,fcs/flap-position-normalizer,IO320 Power Available (engine 0 in ft-lbs/sec),IO320 HP (engine 0),IO320 equivalent ratio (engine 0),IO320 MAP (engine 0 in inHg),Fixed-Pitch 75-inch Two-Blade Propeller Torque (engine 0),Fixed-Pitch 75-inch Two-Blade Propeller PFactor Pitch (engine 0),Fixed-Pitch 75-inch Two-Blade Propeller PFactor Yaw (engine 0),Fixed-Pitch 75-inch Two-Blade Propeller Thrust (engine 0 in lbs),Fixed-Pitch 75-inch Two-Blade Propeller RPM (engine 0),Fuel Tank 0,Fuel Tank 1,/fdm/jsbsim/position/vrp-gc-latitude_deg,/fdm/jsbsim/position/vrp-longitude_deg,/fdm/jsbsim/position/vrp-radius-ft,velocities/pi-deg_sec
0,0,0,0,9.663336530269016,76.81234312818052,-1.039695746948912,0.004178074132240403,0,9.277188200408133e-19,21.66465102,4168693.035,137.012461046,1532.13364548,137.0124610464678,0,0,-1.824623436733737,-4.436942468472541e-18,19.60910936469819,-19.72038668342911,0,-1.824623436733733,-1.82462343673373,0,-12.4753413130309,137.0124610464678,0,0,3.042287778286918e-14,1525.995115695818,137.0124610464678,3.042287778286918e-14,0,137.0124610464678,137.0124610464678,0,-3.042287778286918e-14, 2095.734879,-10.78165492, 13.55483334,-10.78165492, 1505.011878, 3.979907608, 13.55483334, 3.979907608, 3150.439301,77.08075536,2480,45.48951612903226,4.22741935483871,35.42701612903226,1000,1000.0000000004,0,1.272221872585407e-14,0,1,0,1.110223024625157e-16,0,0.7071067811865476,0,-0.7071067811865475,0,0.7071067811865476,0,-0.7071067811865475,0,0,0,0,0,0,20926646.32546,0,0,20926646.32546,0,0,0,1000.0000000004,0,0.003,19.6969697,19.6969697,0.964037442,3.14159265,0,180.013259,3.14159265,3.13859265,0,1,0.523,0,0,0,0.348,0,0,0,0,0,0,0,-1,0,0,0,0,0,0,0,0,0,0,0,0,-100,-0.414937759,-0.0456431535,-0.0456431535,0,0,0,-0,0,0,0.002,0,0,0,0,0,0,0,0,0,0,0,-825,-1.5,1.29953,29.9213,0,0,0,-0,0,130,130,6.59275397929555969e-07,-9.64532971238273226e-07,20926646.5815419964,0.00417807413224040303
0.1,1.045158623134487,5.979520810902094,-0.1047522599285709,11.47695175655869,40.74563416026903,-1.024200773838065,1.04933663824841,5.979521170871948,-0.1047300555878271,21.61004276,4163439.18,136.839503357,1532.11828583,136.8205113142352,0.0131493799512172,2.279734560904282,-2.101026771639761,0.3094784756513553,25.37151558872435,-11.21388161084703,0.008610725494993624,-1.804103630056318,-1.692548444755061,-0.008441422592913457,-20.99113834635946,136.8205113142352,0.0131493799512172,2.279734560904282,-1.563699202424091,1525.99520228738,136.8306953891667,-1.552571469972807,0.0001041345654426002,136.8306953891667,136.830696411819,0.0001041345653462176,1.552481339315627, 2095.734879,-10.78165492, 13.55483334,-10.78165492, 1505.011878, 3.979907608, 13.55483334, 3.979907608, 3150.439301,77.08075536,2480,45.48951612903226,4.22741935483871,35.42701612903226,999.91524308175,999.91524307979,0.04636432953560515,0.3045410209977437,359.9953099785259,0.9999963857914458,0.0004047124341344975,0.002657601854014083,-4.200329648840146e-05,0.7089832015812239,0.0003158756378942457,-0.7052252507668783,0.0002564741948398488,0.7089832006413916,0.0003184469297068885,-0.70522524961049,0.0002590591883576376,0.95458701025232,0.0055057491228624,3.7488206790758e-05,3.7740846285462e-05,-3.5568642861599e-12,20926646.24014219,152.5995096510342,13.69215059774765,20926646.24069858,-1.299105122143374e-06,13.69215059774765,0.00041780741322404,999.91524307979,0,6.28610345,19.6969697,19.6969697,0.964040415,3.14159256,13.691492,180.013254,3.14159256,3.13867442,0,1,0.523,0,-0.000809210206,-0.0259349997,0.348,0,-0.0425298136,-0.106324534,-0.0894252333,0,0,0,-1,0.322438413,0,360.021828,-360.021828,360,-0.0218277344,-0.000380893966,-1.85050166e-05,-0.000827715223,0,0,0,-100,-9.89176155,-1.08810215,0.464379184,0,0,0,-0,0,0,0.002,0,0,0,0,0,0,0,0,0,0,0,-825,-1.5,1.29953,29.8488,0,0,-0,-0,0,130,130,3.81436631363767675e-05,-9.64022506576035672e-07,20926646.4983462803,1.04933663824841039
0.2,2.261034604846698,8.750592306540751,-0.2012358870852133,12.71865210075164,14.10256035975359,-0.8670542660526708,2.265211974696911,8.750593904033053,-0.2011591926458019,21.55534372,4158174.227,136.66581638,1532.10665277,136.5841081516708,0.06419507354387112,4.724684760807421,-2.633109711835161,0.7592025951402451,23.17722405009427,-2.466018175721636,0.08495730276477531,-1.868359415196824,-1.322261112479804,-0.02226119911619159,-29.7591117816639,136.5841081516708,0.06419507354387112,4.724684760807421,-2.238978803155391,1525.999066498652,136.647837482312,-2.216723271268662,0.00400375196024531,136.647837482312,136.6478404005763,0.004003751975183975,2.216543370287993, 2095.734879,-10.78165492, 13.55483334,-10.78165492, 1505.011878, 3.979907608, 13.55483334, 3.979907608, 3150.439301,77.08075536,2480,45.48951612903226,4.22741935483871,35.42701612903226,999.71947342157,999.71947342485,0.2053604969889558,1.051951122504829,359.9818626948214,0.9999562431595308,0.001793484887847163,0.009179577897202071,-0.0001747222470994591,0.7135663210367901,0.001391731860785685,-0.7005853683642714,0.001144638958937159,0.7135663126709794,0.001396840609822066,-0.7005853581969758,0.001149842366579807,1.9811719192791,0.026913144868922,7.4926669363074e-05,7.5431613122363e-05,3.8612046554012e-10,20926646.04268986,305.1991600630217,27.36613241693184,20926646.04491541,0.0001410262044032606,27.36613241693184,0.00083561482644808,999.71947342485,0,6.28586875,19.6969697,19.6969697,0.964047282,-3.1415875,27.3648163,-180.012964,-3.1415875,3.13891436,0,1,0.523,0,-0.00358421683,-0.111283374,0.348,0,-0.148902928,-0.37225732,-0.339011159,0,0,0,-1,0.817878577,0,360.008379,-360.008379,360,-0.00837946019,-0.00014622158,-3.0908424e-05,-0.00361512525,0,0,0,-100,-18.4667414,-2.03139335,0.185150016,0,0,0,-0,0,0,0.002,0,0,0,0,0,0,0,0,0,0,0,-825,-1.5,1.29953,29.7831,0,-0,-0,-0,0,130,130,7.55725935779931956e-05,-9.6183217043691999e-07,20926646.3066536561,2.26521197469691149
0.3,3.53168558240498,9.324108316058624,-0.2775431559711572,12.40114852506258,-2.484976876190622,-0.6273766643502225,3.535861192874355,9.324112206755901,-0.2773997491198079,21.49245001,4152112.043,136.465846772,1532.10562339,136.2980868783662,0.165707346819324,6.762498766312774,-3.052136504529683,1.308695341034648,17.39693702701862,4.590283191941516,0.2735364361161064,-2.113307457568241,-0.8492942922564863,-0.04258205759518879,-36.83786946895088,136.2980868783662,0.165707346819324,6.762498766312774,-2.113898887971299,1526.015915478091,136.4499848143886,-2.08051514726337,0.02088221625175456,136.4499848143886,136.4499889199145,0.02088221637386221,2.080245870103575, 2095.734879,-10.78165492, 13.55483334,-10.78165492, 1505.011878, 3.979907608, 13.55483334, 3.979907608, 3150.439301,77.08075536,2480,45.48951612903226,4.22741935483871,35.42701612903226,999.49874896929,999.49874897227,0.4894251094500993,1.967485671756882,359.9634457537908,0.9998434130770727,0.004275873777116212,0.01716718820600997,-0.0003922740518047298,0.7191344070728231,0.003300876296136342,-0.6948577319050852,0.002746122979343001,0.7191343769922363,0.003308476769673262,-0.6948576957579632,0.002753988995373814,2.8404299515298,0.069572967631282,0.00011231342793362,0.00011307032752096,3.3627502069049e-09,20926645.81916099,457.7997519128931,41.02122962008808,20926645.8241685,0.001228207089127409,41.02122962008808,0.0012534222396721,999.49874897227,0,6.28554732,19.6969697,19.6969697,0.964055024,-3.14156271,41.0192572,-180.011543,-3.14156271,3.13926059,0,1,0.523,0,-0.0085420796,-0.174,0.348,0,-0.233823284,-0.58455821,-0.578920724,0,0,0,-1,1.44215454,0,359.989961,-359.989961,360,0.0100388375,0.000175177714,-2.88315754e-05,-0.00857091118,0,0,0,-100,-26.2256995,-2.8849584,-0.804712528,0,0,0,-0,0,0,0.002,0,0,0,0,0,0,0,0,0,0,0,-825,-1.5,1.29953,29.7237,0,-0,-0,-0,0,130,130,0.000112947349420870576,-9.5555060263838265e-07,20926646.0914048143,3.5358611928743553
0.4,4.702358840823138,8.645820958702673,-0.3283850041814665,10.6792857716205,-10.49286789387026,-0.3709062832001304,4.706531651150477,8.645828328054824,-0.3281754734696327,21.41715519,4144839.384,136.226243251,1532.12602811,135.979924281478,0.3242046011383624,8.181957845509183,-3.282959238350603,1.88292850618116,10.93446020858161,9.324097871704453,0.5841573444379462,-2.522455510763906,-0.436648699838325,-0.06967691458061551,-41.59814045512421,135.979924281478,0.3242046011383624,8.181957845509183,-1.397909060755317,1526.057816118476,136.2195056784989,-1.353395928074844,0.06278991035050285,136.2195056784989,136.2195092365735,0.06278991068373105,1.353037759915878, 2095.734879,-10.78165492, 13.55483334,-10.78165492, 1505.011878, 3.979907608, 13.55483334, 3.979907608, 3150.439301,77.08075536,2480,45.48951612903226,4.22741935483871,35.42701612903226,999.32314860076,999.32314860259,0.8968173819233891,2.875976537943674,359.9439268015815,0.9996542402688386,0.007835941930627503,0.0250903952968351,-0.0006855584873811415,0.72460297482358,0.00602560416919265,-0.6891216560945637,0.005056092631709818,0.7246029010073007,0.006035654477281936,-0.6891215681424786,0.005066660407615239,3.4433548360569,0.13635825547042,0.0001496419348928,0.00015065039774368,1.4107159095001e-08,20926645.63963441,610.40317892978,54.65505090047888,20926645.64853675,0.005152482818061799,54.65505090047888,0.0016712296528962,999.32314860259,0,6.28520665,19.6969697,19.6969697,0.964061183,-3.14149838,54.6524236,-180.007857,-3.14149838,3.13966559,0,1,0.523,0,-0.0156524161,-0.174,0.348,0,-0.254491669,-0.636229172,-0.631360886,0,0,0,-1,2.14816272,0,359.970441,-359.970441,360,0.0295592275,0.000515808519,-1.04744704e-05,-0.0156628906,0,0,0,-100,-33.246291,-3.65731704,-2.30427928,0,0,0,-0,0,0,0.002,0,0,0,0,0,0,0,0,0,0,0,-825,-1.5,1.29953,29.6698,0,-0,-0,-0,0,130,130,0.000150263514499960086,-9.39942445044558287e-07,20926645.9219247736,4.70653165115047667
0.5,5.657891271614029,7.469901520136769,-0.3540480722802815,8.13753537131222,-12.39168846948586,-0.1234881481229166,5.662060686475739,7.469913548877059,-0.3537794862142513,21.32840803,4136246.105,135.943540874,1532.17866014,135.6442358191931,0.5387042731581534,8.999855110889936,-3.408860910975438,2.413006715274929,5.443376197785568,11.88720313092419,0.9904867769655958,-3.009078850273147,-0.1678880825171223,-0.1028647777201039,-44.19619402294146,135.6442358191931,0.5387042731581534,8.999855110889936,-0.3205486204827765,1526.135900745836,135.9432098056083,-0.2649037343396525,0.140851140230273,135.9432098056083,135.9432106748259,0.1408511404200934,0.2644572932965197, 2095.734879,-10.78165492, 13.55483334,-10.78165492, 1505.011878, 3.979907608, 13.55483334, 3.979907608, 3150.439301,77.08075536,2480,45.48951612903226,4.22741935483871,35.42701612903226,999.24015112221,999.24015112926,1.411907706583696,3.688924744916761,359.9258494406436,0.9994055524240681,0.01233534688700436,0.03217596301338554,-0.001043266639861977,0.7294371618794059,0.009460095481761256,-0.6839357993791547,0.007984722311408059,0.7294370161944107,0.009472563826442791,-0.6839356268052436,0.007998020159254734,3.795952223996,0.22704691844957,0.00018690122999566,0.00018816078967805,4.1056090150514e-08,20926645.55158883,763.0125252500635,68.26359339427276,20926645.56549904,0.01499527983014559,68.26359339427276,0.0020890370661202,999.24015112926,0,6.28489114,19.6969697,19.6969697,0.964064094,-3.14137299,68.2603135,-180.000672,-3.14137299,3.14010649,0,1,0.523,0,-0.0246424382,-0.174,0.348,0,-0.271532193,-0.678830482,-0.675014263,0,0,0,-1,2.88695967,0,359.952362,-359.952362,360,0.04763792,0.000831281704,2.3109316e-05,-0.0246193289,0,0,0,-100,-39.5987813,-4.35616683,-4.09170954,0,0,0,-0,0,0,0.002,0,0,0,0,0,0,0,0,0,0,0,-825,-1.5,1.29953,29.621,0,-0,-0,-0,0,130,130,0.00018751128736750505,-9.06698442825566696e-07,20926645.8452389725,5.66206068647573879
0.6,6.345105195967826,6.286989447477194,-0.3553249946531143,5.386355330295503,-10.73457444947068,0.1184644077892082,6.349271057575749,6.287007155991225,-0.355006267612128,21.22746999,4126445.599,135.621549909,1532.27130293,135.296634556899,0.802460897003338,9.347809039038625,-3.533900763806143,2.855572741238505,1.575227432345226,12.79830305353463,1.449303600927776,-3.497309396787773,-0.052228901326601,-0.1408075667734356,-45.15279979353421,135.296634556899,0.802460897003338,9.347809039038625,0.9253574565413317,1526.257625025696,135.6176667891675,0.9921378686345328,0.2625202022470425,135.6176667891675,135.6176628818141,0.2625202005980647,-0.9926718307395515, 2095.734879,-10.78165492, 13.55483334,-10.78165492, 1505.011878, 3.979907608, 13.55483334, 3.979907608, 3150.439301,77.08075536,2480,45.48951612903226,4.22741935483871,35.42701612903226,999.2758156769,999.27581567585,2.010409205795799,4.381172303758793,359.9106386283123,0.9991146015862744,0.01756020739482251,0.03820406235926244,-0.001449700865891317,0.7334937238993607,0.01344201317919154,-0.6794678023680228,0.01139187548686175,0.7334934745112467,0.01345687744803485,-0.679467508143317,0.0114079216458939,3.9523540986767,0.33901611459211,0.00022407813662232,0.00022558823789943,9.5228159165212e-08,20926645.58108313,915.6318184582474,81.84204477062137,20926645.60111456,0.03478102497308555,81.84204477062137,0.0025068444793442,999.27581567585,0,6.28462566,19.6969697,19.6969697,0.964062843,-3.14116768,81.8381178,-179.988908,-3.14116768,3.14057728,0,1,0.523,0,-0.03508826,-0.174,0.348,0,-0.283926856,-0.70981714,-0.70720015,0,0,0,-1,3.62011692,0,359.93715,-359.93715,360,0.0628498528,0.00109672993,6.92941895e-05,-0.0350189658,0,0,0,-100,-45.3467488,-4.98847077,-5.9811426,0,0,0,-0,0,0,0.002,0,0,0,0,0,0,0,0,0,0,0,-825,-1.5,1.29953,29.5767,0,-0,-0,-0,0,130,130,0.000224677907224210012,-8.45051139159481126e-07,20926645.8871680573,6.34927105757574939
0.7,6.765438845257568,5.350239666014066,-0.3320266171891214,2.878221405415899,-7.646682697934399,0.371974540158596,6.769601235306326,5.350263793546593,-0.3316657426975398,21.11593885,4115584.651,135.265123079,1532.40758237,134.9342890912767,1.105779333111506,9.389803033275479,-3.709832646302183,3.194760618321504,-0.6678264616850242,12.6573770203852,1.921485476820228,-3.943185451411173,-0.0496050915414142,-0.1820044723993144,-45.06674572324071,134.9342890912767,1.105779333111506,9.389803033275479,2.204780333871854,1526.426179154595,135.2451738258697,2.282701493771761,0.4309897981256102,135.2451738258697,135.2451633495648,0.430989790592156,-2.283322109426633, 2095.734879,-10.78165492, 13.55483334,-10.78165492, 1505.011878, 3.979907608, 13.55483334, 3.979907608, 3150.439301,77.08075536,2480,45.48951612903226,4.22741935483871,35.42701612903226,999.43974309042,999.43974309531,2.6653827933828,4.965346589736641,359.899621532855,0.9987898567727708,0.02327385032320682,0.04328517738223326,-0.001882370300863794,0.7368567729290799,0.01778810060185266,-0.6756455288724097,0.01512610261245041,0.7368563866346092,0.01780534469319247,-0.6756450746572911,0.0151449089626654,3.9806797044556,0.46839268774451,0.00026115938442589,0.00026291938262466,1.8908960877974e-07,20926645.73771778,1068.265614788767,95.38555845761537,20926645.76498424,0.06906287503898056,95.38555845761537,0.0029246518925683,999.43974309531,3.2706509777296e-09,6.28443337,19.6969697,19.6969697,0.964057093,-3.14086861,95.3809972,-179.971772,-3.14086861,3.14106863,0,1,0.523,0,-0.0465197056,-0.174,0.348,0,-0.291632587,-0.729081468,-0.727594771,0,0,0,-1,4.32354808,0,359.926132,-359.926132,360,0.0738677598,0.00128899241,0.00012448559,-0.04639522,0,0,0,-100,-50.5477219,-5.56053261,-7.84385472,0,0,0,-0,0,0,0.002,0,0,0,0,0,0,0,0,0,0,0,-825,-1.5,1.29953,29.5365,0,-0,-0,-0,0,130,130,0.000261750051885364867,-7.42831290316875458e-07,20926646.0572088137,6.76960123530632618
0.8,6.956268835667478,4.731616729137538,-0.2823011944017007,0.8625957705252496,-4.541568593892949,0.6502905481726805,6.96042787621682,4.731647669045672,-0.2819040447000675,20.99525352,4103795.596,134.878602876,1532.58788803,134.5518405328847,1.43823400909489,9.272065886732953,-3.937696370445,3.430469013042935,-1.631237275613746,11.98081695471713,2.383010634517948,-4.333006452400664,-0.1062551537785409,-0.2250792318257893,-44.45184389297765,134.5518405328847,1.43823400909489,9.272065886732953,3.439487592542969,1526.641554294998,134.8308909711447,3.528556088663308,0.6462549930959682,134.8308909711447,134.8308724850754,0.6462549724337272,-3.529262399365203, 2095.734879,-10.78165492, 13.55483334,-10.78165492, 1505.011878, 3.979907608, 13.55483334, 3.979907608, 3150.439301,77.08075536,2480,45.48951612903226,4.22741935483871,35.42701612903226,999.73094278574,999.73094278559,3.351934083357707,5.470395495476017,359.8948718328422,0.9984317508044394,0.02925740033850498,0.04767284135670929,-0.002311646165050018,0.7397058900102879,0.02232263892093442,-0.6722900095428449,0.01905358613423821,0.7397053339318524,0.02234224857568735,-0.6722893581398527,0.01907516220779429,3.942062140161,0.61096644398147,0.00029813279393141,0.00030014196229469,3.3550811308857e-07,20926646.0205017,1220.918616757206,108.8896862805735,20926646.05611758,0.1225406058042608,108.8896862805735,0.0033424593057923,999.73094278559,3.2706509777294e-09,6.28435047,19.6969697,19.6969697,0.964046879,-3.14046729,108.884518,-179.948776,-3.14046729,3.14155285,0,1,0.523,0,-0.0585022861,-0.174,0.348,0,-0.295263043,-0.738157608,-0.73760373,0,0,0,-1,4.98628902,0,359.921382,-359.921382,360,0.0786178097,0.00137188078,0.000183854854,-0.0583184312,0,0,0,-100,-55.2537543,-6.07806164,-9.60732404,0,0,0,-0,0,0,0.002,0,0,0,0,0,0,0,0,0,0,0,-825,-1.5,1.29953,29.5,0,-0,-0,-0,0,130,130,0.000298715272118023659,-5.87450433611752783e-07,20926646.3543395139,6.96042787621682013
0.9,6.971486620785925,4.395411823978536,-0.203525016173128,-0.5860288695489465,-2.121702641087571,0.9542496862481583,6.975642357714806,4.395449605067731,-0.2030952178230492,20.8665095,4091178.153,134.465241615,1532.81090176,134.1449915511892,1.789713659843563,9.100514776609872,-4.197886475215251,3.568136622961953,-1.763643553349493,11.13237936115419,2.824968327859773,-4.674412530972542,-0.1804351642178389,-0.2688680374130002,-43.66990672722242,134.1449915511892,1.789713659843563,9.100514776609872,4.595505458626814,1526.902129360665,134.3801667970667,4.695729133066765,0.906698380679111,134.3801667970667,134.3801391554924,0.9066983358414643,-4.69652010859283, 2095.734879,-10.78165492, 13.55483334,-10.78165492, 1505.011878, 3.979907608, 13.55483334, 3.979907608, 3150.439301,77.08075536,2480,45.48951612903226,4.22741935483871,35.42701612903226,1000.1429423951,1000.1429423932,4.04993825485976,5.926797398251781,359.8994551134202,0.9980371351060333,0.03533308905198133,0.05163474159182328,-0.002702448543726659,0.7422281324295031,0.02689512184957832,-0.6692097344515678,0.02307342987443094,0.742227374886422,0.02691708162963648,-0.6692088515408213,0.02309778572004452,3.8810495780011,0.7626213724845,0.00033498767312763,0.0003372452128391,5.4709456436362e-07,20926646.42296189,1373.595432704618,122.3505233081485,20926646.46804231,0.1998202071831656,122.3505233081485,0.0037602667190164,1000.1429423932,3.2706509777292e-09,6.28443047,19.6969697,19.6969697,0.964032428,-3.13995948,122.3448,-179.919678,-3.13995948,-3.14120464,0,1,-0.523,0,-0.070684757,-0.174,0.348,0,-0.295746148,-0.739365371,-0.739499045,0,0,0,-1,5.60695501,0,359.925966,-359.925966,360,0.0740341915,0.00129189664,0.000240613474,-0.0704441436,0,0,0,-100,-59.511946,-6.54622899,-11.2427491,0,0,0,-0,0,0,0.002,0,0,0,0,0,0,0,0,0,0,0,-825,-1.5,1.29953,29.4667,0,-0,-0,-0,0,130,130,0.000335562571196063345,-3.66521755253846499e-07,20926646.7720882595,6.97564235771480678
1,6.866557741401767,4.261311805783408,-0.09350971754747991,-1.510080825944254,-0.5722396069218422,1.274228065411927,6.870710109705072,4.261356102639422,-0.09304908893705011,20.73045255,4077798.402,134.027179957,1533.0748403,133.7115102993965,2.150698708450788,8.938203157960167,-4.47002257602854,3.613901368561007,-1.465344927098446,10.32182920822138,3.247845145194129,-4.983232415709268,-0.2482571026659101,-0.3123737100176792,-42.92991443319426,133.7115102993965,2.150698708450788,8.938203157960167,5.667349371618466,1527.205919599544,133.8970733259254,5.778737232672626,1.21033793652972,133.8970733259253,133.8970355800233,1.210337852217915,-5.779611780955749, 2095.734879,-10.78165492, 13.55483334,-10.78165492, 1505.011878, 3.979907608, 13.55483334, 3.979907608, 3150.439301,77.08075536,2480,45.48951612903226,4.22741935483871,35.42701612903226,1000.6674255654,1000.6674255643,4.744960237476367,6.35882879225308,359.9171489795177,0.9976029825771429,0.04137209455680076,0.05538533589714349,-0.003017202799363522,0.7445730045453213,0.0313878894641872,-0.6662509186349156,0.02712111198804232,0.7445720151990759,0.03141218133490641,-0.6662497737715698,0.02714825952988446,3.824356992727,0.91944968215896,0.00037171463813909,0.00037421968713961,8.3594570349545e-07,20926646.93678128,1526.300482861733,135.7646423606671,20926646.9924422,0.3053198820325633,135.7646423606671,0.0041780741322404,1000.6674255643,3.2706509777289e-09,6.28473928,19.6969697,19.6969697,0.964014032,-3.13934377,135.75845,-179.884398,-3.13934377,-3.14089774,0,1,-0.523,0,-0.082815179,-0.174,0.348,0,-0.294055058,-0.735137644,-0.735722893,0,0,0,-1,6.18984666,0,359.943661,-359.943661,360,0.056339022,0.000983115934,0.000285358018,-0.082529821,0,0,0,-100,-63.364915,-6.96971773,-12.7493295,0,0,0,-0,0,0,0.002,0,0,0,0,0,0,0,0,0,0,0,-825,-1.5,1.29953,29.4364,0,-0,-0,-0,0,130,130,0.000372282326087028078,-6.81050843162426761e-08,20926647.302147761,6.87071010970507157
1.1,6.689587331414104,4.245507785606847,0.04869206974169026,-2.010651685542865,0.2110527615764042,1.595487864987312,6.693736170576996,4.245557944092781,0.04918290696648035,20.5875593,4063696.264,133.56569967,1533.37809649,133.2509096989566,2.512271885626227,8.813607816938017,-4.739929291050669,3.573839181406783,-1.023412280386864,9.637987546290951,3.655357410579759,-5.274189543958215,-0.2999981602686493,-0.3546905659215904,-42.32066617778778,133.2509096989566,2.512271885626227,8.813607816938017,6.664116323362312,1527.551196733442,133.3840984067127,6.786678494477446,1.555447079960569,133.3840984067127,133.3840497136445,1.555446936204655,-6.787635464155336, 2095.734879,-10.78165492, 13.55483334,-10.78165492, 1505.011878, 3.979907608, 13.55483334, 3.979907608, 3150.439301,77.08075536,2480,45.48951612903226,4.22741935483871,35.42701612903226,1001.2963575609,1001.2963575601,5.427924029078457,6.78218949534454,359.9519541166895,0.9971281018534907,0.04729172281433464,0.05906505120384274,-0.003218877691718501,0.7468389610412095,0.03571628337396787,-0.6633134229425114,0.03116434368194134,0.7468377105436698,0.03574288661292144,-0.6633119899491765,0.03119429685261589,3.7841996284501,1.0777547324987,0.00040830520036088,0.00041105683938225,1.2136433447398e-06,20926647.55392427,1679.037999169205,149.1289432249199,20926647.62128261,0.4432697631330029,149.1289432249199,0.0045958815454644,1001.2963575601,-3.2706509777286e-09,6.28534675,19.6969697,19.6969697,0.963991972,-3.13862027,149.122418,-179.842941,-3.13862027,-3.14078171,0,1,-0.523,0,-0.0947351459,-0.174,0.348,0,-0.291043634,-0.727609086,-0.728450122,0,0,0,-1,6.74180157,0,359.978469,-359.978469,360,0.021531321,0.000375721552,0.00030579779,-0.0944293481,0,0,0,-100,-66.8512234,-7.35276795,-14.1404034,0,0,0,-0,0,0,0.002,0,0,0,0,0,0,0,0,0,0,0,-825,-1.5,1.29953,29.4088,0,-0,-0,-0,0,130,130,0.000408865908174983034,3.19287789990632794e-07,20926647.9364909306,6.69373617057699555
1.2,6.477640279315266,4.280915273456437,0.2224990340145508,-2.202124863874904,0.4451042369300666,1.902765611825288,6.481785368631248,4.280970343320385,0.2230200957451702,20.43814026,4048895.312,133.081549147,1533.71937561,132.7638125890234,2.866150008236059,8.732352158894845,-4.999507697171813,3.454827310867611,-0.6081116675371803,9.093239204006757,4.050714724076195,-5.556997799894723,-0.3343350392954316,-0.3949614289515749,-41.85473785056818,132.7638125890234,2.866150008236059,8.732352158894845,7.59955319049545,1527.936595965177,132.8424955048435,7.733300880418584,1.940661951124462,132.8424955048436,132.842435067455,1.940661722840645,-7.7343390600956, 2095.734879,-10.78165492, 13.55483334,-10.78165492, 1505.011878, 3.979907608, 13.55483334, 3.979907608, 3150.439301,77.08075536,2480,45.48951612903226,4.22741935483871,35.42701612903226,1002.0229093842,1002.0229093825,6.094129702566834,7.204759284526881,0.007657619312386232,0.9966133413371903,0.05304702602528409,0.06274668374923827,-0.003273312858119312,0.7490780767424398,0.03982436576919169,-0.6603463726273445,0.03519549676929528,0.7490765361278015,0.03985325766119881,-0.6603446295721653,0.03522827091647499,3.7631285386654,1.2340628555879,0.00044475137178624,0.00044774862772506,1.6913475083143e-06,20926648.26756093,1831.812059384509,162.440508512589,20926648.34773467,0.6177459289515355,162.440508512589,0.0050136889586885,1002.0229093825,-3.2706509777283e-09,0.00313365067,19.6969697,19.6969697,0.963966489,-3.13778977,162.433853,-179.795354,-3.13778977,-3.14092342,0,1,-0.523,0,-0.106362628,-0.174,0.348,0,-0.287375451,-0.718438627,-0.719389588,0,0,0,-1,7.27012156,0,0.00765818338,-0.00765818338,0,-0.00765818338,-0.0001336353,0.000289784737,-0.106072844,0,0,0,-100,-70.005764,-7.69921788,-15.4335569,0,0,0,-0,0,0,0.002,0,0,0,0,0,0,0,0,0,0,0,-825,-1.5,1.29953,29.3835,0,-0,-0,-0,0,130,130,0.00044530528132930632,8.06773486742244817e-07,20926648.6682926938,6.48178536863124766
1.3,6.256784867954766,4.323076595953916,0.4258846575505172,-2.18686356885034,0.3527776657562277,2.182848967306724,6.26092596281113,4.323135366917196,0.4264361852642099,20.2824297,4033411.462,132.575229448,1534.09759336,132.2514446575583,3.204809623922097,8.687694999995825,-5.244860887386321,3.265388965068544,-0.2963187389915696,8.66074069036766,4.435259644004886,-5.836082108411624,-0.3539385434640615,-0.4323790908663279,-41.50534174332133,132.2514446575583,3.204809623922097,8.687694999995825,8.486453106089744,1528.360987521768,132.2728161434151,8.631398582355994,2.364853304659696,132.272816143415,132.2727431825955,2.364852961203965,-8.632516699823482, 2095.734879,-10.78165492, 13.55483334,-10.78165492, 1505.011878, 3.979907608, 13.55483334, 3.979907608, 3150.439301,77.08075536,2480,45.48951612903226,4.22741935483871,35.42701612903226,1002.8416115977,1002.8416115961,6.742092161700668,7.628668343554098,0.08756030707139931,0.9960610582961003,0.05862089931314632,0.06645323124805393,-0.00315061366454255,0.7513082804384001,0.04367890302230718,-0.6573351726682936,0.03922361468052705,0.7513064204442325,0.04371005983710228,-0.6573331016046008,0.03925922570793218,3.7584020700262,1.3851754554421,0.00048104539939623,0.00048428724689766,2.2798812415648e-06,20926649.07222077,1984.62661812058,175.6965066542056,20926649.16632906,0.8327013837420054,175.6965066542056,0.0054314963719125,1002.8416115961,0,0.00452821565,19.6969697,19.6969697,0.963937775,-3.13685326,175.690003,-179.741692,-3.13685326,-3.14138147,0,1,-0.523,0,-0.117671707,-0.174,0.348,0,-0.283520589,-0.708801472,-0.709762802,0,0,0,-1,7.78152225,0,0.0875667569,-0.0875667569,0,-0.0875667569,-0.00152803991,0.000236657541,-0.117435049,0,0,0,-100,-72.8601086,-8.01254155,-16.6450582,0,0,0,-0,0,0,0.002,0,0,0,0,0,0,0,0,0,0,0,-825,-1.5,1.29953,29.3603,0,-0,-0,-0,0,130,130,0.000481592710932507234,1.40516740040030017e-06,20926649.4920850247,6.26092596281112979
1.4,6.043829812115185,4.347915142791826,0.6556392316088339,-2.044678849279132,0.1104308376834171,2.425644880902341,6.047966672106259,4.347976182763131,0.6562214403262648,20.12064882,4017259.172,132.047197303,1534.51170104,131.7152951963901,3.521671370185707,8.668399950838859,-5.474632306776589,3.015972217598406,-0.1028791543137118,8.30011481677284,4.808625718438674,-6.111887390009402,-0.3627561418235431,-0.4662187026723771,-41.23189913536925,131.7152951963901,3.521671370185707,8.668399950838859,9.334050045525951,1528.823282589158,131.6753839770544,9.490206597706285,2.826932763189784,131.6753839770544,131.6752977310853,2.82693226797852,-9.491403320993959, 2095.734879,-10.78165492, 13.55483334,-10.78165492, 1505.011878, 3.979907608, 13.55483334, 3.979907608, 3150.439301,77.08075536,2480,45.48951612903226,4.22741935483871,35.42701612903226,1003.7481072731,1003.7481072697,7.372481629780075,8.052537659384894,0.1943646204822847,0.9954743811513977,0.0640150481524214,0.07017724090300442,-0.002825763706778992,0.7535265143574053,0.04726341180381258,-0.6542873050235414,0.04326759237667037,0.7535243047899067,0.04729680971012285,-0.6542848916195069,0.04330605593427295,3.7652995823655,1.52824776316,0.00051717964091198,0.00052066500311616,2.9897679168264e-06,20926649.9635457,2137.485520492895,188.8941465211596,20926650.07270898,1.09197968027911,188.8941465211596,0.0058493037851365,1003.7481072697,3.2706509777276e-09,0.00639230258,19.6969697,19.6969697,0.963905982,-3.13581181,188.888181,-179.682017,-3.13581181,3.1409812,0,1,0.523,0,-0.128674078,-0.174,0.348,0,-0.279784325,-0.699460814,-0.700370202,0,0,0,-1,8.28171738,0,0.194378938,-0.194378938,0,-0.194378938,-0.00339191246,0.000106741143,-0.128567337,0,0,0,-100,-75.442825,-8.29588307,-17.7872864,0,0,0,-0,0,0,0.002,0,0,0,0,0,0,0,0,0,0,0,-825,-1.5,1.29953,29.3391,0,-0,-0,-0,0,130,130,0.000517720611017269709,2.12500837092775398e-06,20926650.4035121538,6.04796667210625838
1.5,5.848728255539348,4.346272761861389,0.9076967009000453,-1.831248272837911,-0.1650018351075476,2.624378712567297,5.852860661762334,4.346334456649892,0.9083096576813895,19.95304197,4000455.087,131.497983522,1534.96057257,131.156923680297,3.811283440462758,8.663438087173278,-5.688837015568073,2.718671160285301,-0.01009253714181568,7.973647781012815,5.169676584879205,-6.382631866339991,-0.3645010424674018,-0.4958800904629013,-40.99627805438764,131.156923680297,3.811283440462758,8.663438087173278,10.14758224978163,1529.322309131545,131.0506036334031,10.31496414043853,3.325728842707863,131.0506036334031,131.050503373083,3.325728152972397,-10.31623808115807, 2095.734879,-10.78165492, 13.55483334,-10.78165492, 1505.011878, 3.979907608, 13.55483334, 3.979907608, 3150.439301,77.08075536,2480,45.48951612903226,4.22741935483871,35.42701612903226,1004.7387607694,1004.7387607745,7.987282329669155,8.473307307084518,0.3301677599273802,0.9948565369582402,0.06924282103459807,0.07389661665821715,-0.002278739365694085,0.755719436061193,0.05057317202436285,-0.6512206756902021,0.04735102727864794,0.7557168452624594,0.05060878776914197,-0.6512179088258763,0.04739235815557795,3.7791249401521,1.6608698856547,0.0005531465487153,0.00055687429789539,3.8312232783539e-06,20926650.93789886,2290.392499212566,202.0306715526315,20926651.06323893,1.399312015174928,202.0306715526315,0.0062671111983606,1004.7387607745,3.2706509777272e-09,0.00876251449,19.6969697,19.6969697,0.963871239,-3.13466653,202.025752,-179.616392,-3.13466653,3.13975627,0,1,0.523,0,-0.139404375,-0.174,0.348,0,-0.276348749,-0.690871873,-0.691693574,0,0,0,-1,8.77540955,0,0.330192081,-0.330192081,0,-0.330192081,-0.00576185181,-0.00012005697,-0.139524432,0,0,0,-100,-77.779762,-8.55208802,-18.8683261,0,0,0,-0,0,0,0.002,0,0,0,0,0,0,0,0,0,0,0,-825,-1.5,1.29953,29.3196,0,-0,-0,-0,0,130,130,0.000553681504227995606,2.97654108366147287e-06,20926651.3989411518,5.85286066176233444
1.6,5.676828192682721,4.318156058077465,1.177457022277819,-1.58222342041004,-0.4095869750149317,2.775338767011249,5.680955955058786,4.318216652060602,1.178100613444981,19.77989154,3983019.624,130.928244038,1535.44297598,130.5778555172247,4.069459868492045,8.664192509468078,-5.888185145003488,2.386635237002726,0.0116384919876289,7.653075639096926,5.517336018703233,-6.64572783438735,-0.362032387069312,-0.5209236436488942,-40.76968303160267,130.5778555172247,4.069459868492045,8.664192509468078,10.92895927888162,1529.856778548773,130.3991084072501,11.10758168682967,3.859953704933607,130.3991084072501,130.3989934568872,3.859952771648439,-11.10893140544663, 2095.734879,-10.78165492, 13.55483334,-10.78165492, 1505.011878, 3.979907608, 13.55483334, 3.979907608, 3150.439301,77.08075536,2480,45.48951612903226,4.22741935483871,35.42701612903226,1005.8102860004,1005.8102860044,8.589194381240212,8.88748194481613,0.4965043738145248,0.9942103395632924,0.07432411899714621,0.07758539092609791,-0.001494374646826043,0.7578706733032663,0.05361153176639219,-0.6481556360378027,0.05149871533296847,0.7578676677372402,0.05364934307863254,-0.6481525074032644,0.05154292708615212,3.7961647600451,1.781131605315,0.00058893871548827,0.00059290767399609,4.8141262344266e-06,20926651.99199281,2443.351163901451,215.1033764233988,20926652.13463296,1.75830656108019,215.1033764233988,0.0066849186115846,1005.8102860044,0,0.0116656361,19.6969697,19.6969697,0.96383366,-3.13341859,215.100154,-179.544885,-3.13341859,3.13810108,0,1,0.523,0,-0.149909722,-0.174,0.348,0,-0.273312598,-0.683281494,-0.683997081,0,0,0,-1,9.26645801,0,0.496540947,-0.496540947,0,-0.496540947,-0.00866463953,-0.000464389194,-0.150374111,0,0,0,-100,-79.8943089,-8.78373189,-19.8926633,0,0,0,-0,0,0,0.002,0,0,0,0,0,0,0,0,0,0,0,-825,-1.5,1.29953,29.3016,0,-0,-0,-0,0,130,130,0.000589468050776599723,3.96968023227764274e-06,20926652.4750912003,5.6809559550587867
1.7,5.530615877353318,4.268058973609069,1.460073645438571,-1.318951215314043,-0.5981817383028085,2.877449462561132,5.534738834422684,4.268116610631233,1.460747593828542,19.60151896,3964977.197,130.338766335,1535.95760814,129.9795319173676,4.293353673874941,8.665010475477979,-6.073667839527277,2.033384375196098,-0.008571981424989161,7.320793103783984,5.851089764486877,-6.898708311971333,-0.3572323188819817,-0.5410914123760046,-40.53396921892492,129.9795319173676,4.293353673874941,8.665010475477979,11.6778029096412,1530.425319991299,129.7217901877557,11.8676818724613,4.42823748516561,129.7217901877558,129.7216599452416,4.428236253157567,-11.86910588479273, 2095.734879,-10.78165492, 13.55483334,-10.78165492, 1505.011878, 3.979907608, 13.55483334, 3.979907608, 3150.439301,77.08075536,2480,45.48951612903226,4.22741935483871,35.42701612903226,1006.9594645463,1006.9594645488,9.181242398584681,9.291837981964422,0.694400650708198,0.9935378596797803,0.07928206841234524,0.08121983405997305,-0.0004621325048670438,0.7599649108071151,0.05638739290297277,-0.6451104294850475,0.05573446001494073,0.7599614547594857,0.05642737865986587,-0.6451069331873226,0.05578156479581509,3.8139468409768,1.8876621221864,0.00062454894303222,0.00062875788470773,5.9479905579811e-06,20926653.12260772,2596.364990733968,228.1096321772393,20926653.28367281,2.172438130683076,228.1096321772393,0.0071027260248087,1006.9594645488,-3.2706509777264e-09,0.0151195777,19.6969697,19.6969697,0.96379336,-3.13206928,228.108926,-179.46757,-3.13206928,3.13599645,0,1,0.523,0,-0.160242909,-0.174,0.348,0,-0.270722511,-0.676806276,-0.677407835,0,0,0,-1,9.7580772,0,0.694451801,-0.694451801,0,-0.694451801,-0.0121181839,-0.000946984988,-0.161189894,0,0,0,-100,-81.8076289,-8.9931458,-20.8622517,0,0,0,-0,0,0,0.002,0,0,0,0,0,0,0,0,0,0,0,-825,-1.5,1.29953,29.2849,0,-0,-0,-0,0,130,130,0.000625073107624724966,5.11397797991754794e-06,20926653.6287518553,5.53473883442268377
1.8,5.410893680888035,4.201780276812089,1.750695616001049,-1.053805649518519,-0.7295210129384312,2.931801297126993,5.415011694936309,4.201833040403762,1.751399519230269,19.41827822,3946355.685,129.730451606,1536.50315929,129.3632931395059,4.481462710278032,8.662849073743409,-6.24631040351191,1.672165338001623,-0.04791402200573458,6.968161295889928,6.17113846050534,-7.139694381765654,-0.3511460010281462,-0.5563117107050169,-40.28002656450881,129.3632931395059,4.481462710278032,8.662849073743409,12.39244397595295,1531.026546878023,129.0197605221128,12.59359633787518,5.02919477562107,129.0197605221128,129.0196144745483,5.02919318384218,-12.59509312209876, 2095.734879,-10.78165492, 13.55483334,-10.78165492, 1505.011878, 3.979907608, 13.55483334, 3.979907608, 3150.439301,77.08075536,2480,45.48951612903226,4.22741935483871,35.42701612903226,1008.1829682402,1008.1829682404,9.766534760573382,9.683726703555756,0.9244216268624352,0.9928402631737788,0.0841409795666181,0.08478106013198872,0.0008241489476392898,0.7619896184950116,0.05891358814710303,-0.642099234600178,0.06007980828303378,0.7619856738741644,0.05895572837333839,-0.6420953667754269,0.06012981679695274,3.8311080428932,1.979643109042,0.0006599703088019,0.00066441796083106,7.2419511882731e-06,20926654.32641394,2749.437317413097,241.0469105259848,20926654.50703045,2.645043173540671,241.0469105259848,0.0075205334380327,1008.1829682404,0,0.0191342011,19.6969697,19.6969697,0.963750454,-3.13061994,241.04973,-179.384523,-3.13061994,3.13343116,0,1,0.523,0,-0.170458188,-0.174,0.348,0,-0.268594375,-0.671485936,-0.671971665,0,0,0,-1,10.2529963,0,0.924489721,-0.924489721,0,-0.924489721,-0.0161323456,-0.00158823541,-0.172046423,0,0,0,-100,-83.5388714,-9.18243989,-21.777533,0,0,0,-0,0,0,0.002,0,0,0,0,0,0,0,0,0,0,0,-825,-1.5,1.29953,29.2695,0,-0,-0,-0,0,130,130,0.000660489790912139056,6.4186076630136637e-06,20926654.8566051759,5.4150116949363083
1.9,5.317469338247062,4.124612289857023,2.04466280787612,-0.7945078046785915,-0.8144190629471941,2.941189823158119,5.321582288308268,4.124658241754304,2.045396179317929,19.23054663,3927185.622,129.104287661,1537.07837581,128.7303800463384,4.633575939966775,8.656576669690823,-6.407066048490369,1.315414101354294,-0.09097873997906802,6.592420436419886,6.478232863179732,-7.367481189479405,-0.3442499555602396,-0.5666896633605062,-40.0047235642818,128.7303800463384,4.633575939966775,8.656576669690823,13.07067131346054,1531.659122475125,128.2942846976723,13.28311468189496,5.661490154068895,128.2942846976723,128.2941224317575,5.661488136006581,-13.28468268553956, 2095.734879,-10.78165492, 13.55483334,-10.78165492, 1505.011878, 3.979907608, 13.55483334, 3.979907608, 3150.439301,77.08075536,2480,45.48951612903226,4.22741935483871,35.42701612903226,1009.4772701338,1009.4772701407,10.34811968902164,10.06112145927314,1.186707909058693,0.9921177865486074,0.08892513286365163,0.08825541295748249,0.002366525465356173,0.7639353071212954,0.06120583254626778,-0.6391318748118576,0.06455338252400496,0.7639308333466761,0.06125010831911509,-0.6391276332385405,0.06460630405813039,3.8471083147177,2.0567974818519,0.0006951962171982,0.00069988126231658,8.704769355999e-06,20926655.59988295,2902.571345025909,253.9128025822723,20926655.8011791,3.179321647941833,253.9128025822723,0.0079383408512567,1009.4772701407,0,0.0237119603,19.6969697,19.6969697,0.963705068,-3.12907199,253.920374,-179.295825,-3.12907199,3.13040136,0,1,0.523,0,-0.18060876,-0.174,0.348,0,-0.266925997,-0.667314992,-0.667686796,0,0,0,-1,10.7535558,0,1.18679532,-1.18679532,0,-1.18679532,-0.0207095784,-0.00240783357,-0.183016594,0,0,0,-100,-85.1053635,-9.35352432,-22.638207,0,0,0,-0,0,0,0.002,0,0,0,0,0,0,0,0,0,0,0,-825,-1.5,1.29953,29.2552,0,-0,-0,-0,0,130,130,0.000695711526851564661,7.89236732288321212e-06,20926656.1551359408,5.32158228830826729
2,5.24952107063482,4.040563285850777,2.337658622904319,-0.5458697326063241,-0.8665785635567124,2.909742175733057,5.253628845282867,4.040600501771808,2.338420925908759,19.03871586,3907499.371,128.46132201,1537.68210948,128.0819470439211,4.750671823796328,8.646225251838354,-6.556677782287736,0.9743403766005931,-0.1301091102759457,6.19529935575067,6.773668349955143,-7.581598416595985,-0.3366174449325071,-0.5724875356596846,-39.70954575853755,128.0819470439211,4.750671823796328,8.646225251838354,13.71022954867464,1532.321812029474,127.5467122379114,13.93398226071344,6.323890266466668,127.5467122379114,127.5465334454901,6.323887750661672,-13.93561990728314, 2095.734879,-10.78165492, 13.55483334,-10.78165492, 1505.011878, 3.979907608, 13.55483334, 3.979907608, 3150.439301,77.08075536,2480,45.48951612903226,4.22741935483871,35.42701612903226,1010.8386161476,1010.8386161503,10.928895399058,10.42253072024371,1.481005115980969,0.9913698138629231,0.09365802855113367,0.09163369044031749,0.00416324700161453,0.7657950341938576,0.06328198059974674,-0.6362144212710569,0.06917056239568913,0.7657899881608509,0.06332837391870051,-0.636209804984728,0.06922640486629031,3.8619163759648,2.1193579682552,0.0007302204323463,0.00073514151126356,1.034485330807e-05,20926656.93925902,3055.770145601614,266.7050308304699,20926657.16236481,3.778344590346478,266.7050308304699,0.0083561482644808,1010.8386161503,0,0.0288484155,19.6969697,19.6969697,0.963657332,-3.12742684,266.718822,-179.201558,-3.12742684,3.12691005,0,1,0.523,0,-0.190745208,-0.174,0.348,0,-0.265703759,-0.664259397,-0.664521507,0,0,0,-1,11.2617491,0,1.48111421,-1.48111421,0,-1.48111421,-0.0258454429,-0.00342446035,-0.194169669,0,0,0,-100,-86.5227834,-9.5081283,-23.4437482,0,0,0,-0,0,0,0.002,0,0,0,0,0,0,0,0,0,0,0,-825,-1.5,1.29953,29.2418,0,-0,-0,-0,0,130,130,0.000730732086240671501,9.54369937213953475e-06,20926657.5206023566,5.25362884528286767
2.1,5.205782402892171,3.952324179112582,2.625824971122931,-0.3122825517862798,-0.8983636273515058,2.842517974107579,5.209884893929463,3.952350780878599,2.626615643678093,18.84318433,3887330.44,127.802639266,1538.31335238,127.4190804652643,4.834780894142334,8.632347916082646,-6.695768267449507,0.6586339501805556,-0.1621294290837945,5.779783063989179,7.058841872149328,-7.782035166270506,-0.328205160463114,-0.5740987825638384,-39.39732941710493,127.4190804652643,4.834780894142334,8.632347916082646,14.30912838171696,1533.013520108449,126.778413478877,14.54420948098229,7.015301120007202,126.778413478877,126.7782179583162,7.015298030647137,-14.54591517598741, 2095.734879,-10.78165492, 13.55483334,-10.78165492, 1505.011878, 3.979907608, 13.55483334, 3.979907608, 3150.439301,77.08075536,2480,45.48951612903226,4.22741935483871,35.42701612903226,1012.2630391121,1012.2630391146,11.51155235532014,10.7668691987225,1.806693189468832,0.9905950089775715,0.09836190890814295,0.09491000993773763,0.006209112520309854,0.7675636951783993,0.06516143751025889,-0.633350088671206,0.07394339785169127,0.7675580312889829,0.06520993116686527,-0.6333450975853847,0.07400216784360407,3.875734198487,2.1680198233293,0.00076503709174729,0.0007701928056637,1.2170292536099e-05,20926658.34057327,3209.036674606941,279.4214541123935,20926658.5866206,4.445066616889108,279.4214541123935,0.0087739556777048,1012.2630391146,3.2706509777244e-09,0.0345327447,19.6969697,19.6969697,0.963607387,-3.12568588,279.443199,-179.101801,-3.12568588,3.12296668,0,1,0.523,0,-0.200914491,-0.174,0.348,0,-0.264906195,-0.662265488,-0.662424043,0,0,0,-1,11.7792435,0,1.80682627,-1.80682627,0,-1.80682627,-0.0315291185,-0.00465550995,-0.205570001,0,0,0,-100,-87.8053172,-9.64781729,-24.1937325,0,0,0,-0,0,0,0.002,0,0,0,0,0,0,0,0,0,0,0,-825,-1.5,1.29953,29.2294,0,-0,-0,-0,0,130,130,0.00076554560070325945,1.13807241184273118e-05,20926658.9490493573,5.20988489392946263
2.2,5.184554394715377,3.86147341590056,2.905841340505694,-0.0979346356457734,-0.9191555852718118,2.745219054683901,5.188651492251143,3.861487599096544,2.90665981107564,18.64435168,3866712.97,127.129344599,1538.97123287,126.7428097688578,4.888824501910539,8.615673224426331,-6.824827661909855,0.3762816972496275,-0.186746386518017,5.349082717986555,7.335087013106436,-7.96908651115358,-0.3189586001929381,-0.5720198372130736,-39.07120717493511,126.7428097688578,4.888824501910539,8.615673224426331,14.8656893169075,1533.733288206333,125.9907438330416,15.11211853610835,7.734765670203339,125.9907438330416,125.9905314890047,7.734761927793482,-15.11389067262125, 2095.734879,-10.78165492, 13.55483334,-10.78165492, 1505.011878, 3.979907608, 13.55483334, 3.979907608, 3150.439301,77.08075536,2480,45.48951612903226,4.22741935483871,35.42701612903226,1013.7463882491,1013.746388249,12.09852733831661,11.09333625622216,2.162820256912301,0.9897914757136839,0.1030573742204981,0.09808074239441306,0.008495892811538132,0.7692373830646742,0.0668645886671104,-0.6305401021764193,0.07888063656906409,0.7692310533165753,0.06691516613225616,-0.6305347367209547,0.07894233935728796,3.8888474234763,2.2038821673054,0.00079964070679931,0.00080502961992574,1.4188895868436e-05,20926659.79967315,3362.373784855701,292.0600678175003,20926660.06979582,5.182339835985658,292.0600678175003,0.0091917630909289,1013.746388249,6.5413019554477e-09,0.0407483346,19.6969697,19.6969697,0.963555377,-3.12385042,292.091796,-178.996629,-3.12385042,3.11858655,0,1,0.523,0,-0.211159137,-0.174,0.348,0,-0.264504265,-0.661260663,-0.661323656,0,0,0,-1,12.3073545,0,2.16297957,-2.16297957,0,-2.16297957,-0.0377439936,-0.00611685554,-0.217275992,0,0,0,-100,-88.9658011,-9.77400853,-24.8878992,0,0,0,-0,0,0,0.002,0,0,0,0,0,0,0,0,0,0,0,-825,-1.5,1.29953,29.2177,0,-0,-0,-0,0,130,130,0.000800146565940040443,1.34112772865048543e-05,20926660.4363373965,5.18865149225114308
2.3,5.18373036664441,3.768811044014429,3.174976845292638,0.09324510174019039,-0.9348951469633047,2.623926238276859,5.187821955682407,3.768811100576565,3.175822541807612,18.44261506,3845681.405,126.442552942,1539.65500309,126.0541212310741,4.916439457171554,8.596879559043138,-6.944215960791515,0.1334727778437141,-0.2051801390243071,4.906103536503586,7.603562290389081,-8.143230223965261,-0.3088705846397803,-0.5668212596594357,-38.73405055167903,126.0541212310741,4.916439457171554,8.596879559043138,15.37854350517209,1534.480283340983,125.1850190389031,15.63634125270518,8.481452404245889,125.185019038903,125.1847898810806,8.481447926347698,-15.63817821644894, 2095.734879,-10.78165492, 13.55483334,-10.78165492, 1505.011878, 3.979907608, 13.55483334, 3.979907608, 3150.439301,77.08075536,2480,45.48951612903226,4.22741935483871,35.42701612903226,1015.2843607441,1015.2843607439,12.69196276460553,11.40131947504585,2.54814282699864,0.9889569276400095,0.1077630333634511,0.1011436689939919,0.01101281687736607,0.7708129120848167,0.06841220864891115,-0.6277844138149092,0.08398782079666761,0.7708058662127478,0.06846485398391748,-0.6277786746060368,0.08405246034985615,3.9015254551852,2.2283816093842,0.00083402615502486,0.00083964679705045,1.640822768536e-05,20926661.312254,3515.784239734481,304.6190010440679,20926661.60758785,5.992927075429634,304.6190010440679,0.0096095705041529,1015.2843607439,3.2706509777233e-09,0.0474734821,19.6969697,19.6969697,0.963501455,-3.12192167,304.663065,-178.886112,-3.12192167,3.11379016,0,1,0.523,0,-0.221516539,-0.174,0.348,0,-0.264461776,-0.66115444,-0.661131606,0,0,0,-1,12.8470281,0,2.54833053,-2.54833053,0,-2.54833053,-0.0444683677,-0.00782265779,-0.229339197,0,0,0,-100,-90.0158497,-9.88798512,-25.5261633,0,0,0,-0,0,0,0.002,0,0,0,0,0,0,0,0,0,0,0,-825,-1.5,1.29953,29.2067,0,-0,-0,-0,0,130,130,0.00083452983651453557,1.56429457358750877e-05,20926661.9781734943,5.18782195568240656
2.4,5.200828926639299,3.674681640357468,3.431117108220238,0.2577678417481331,-0.948643008734414,2.484864495480645,5.204914885021632,3.674665975721394,3.43198946260437,18.23836682,3824270.296,125.743382758,1540.36401659,125.3539704905601,4.921796922518014,8.57649722373958,-7.05417487023728,-0.06541858093649111,-0.2191186147842465,4.453183706186444,7.865174602818221,-8.305028861286601,-0.2980058589495598,-0.5591199331602266,-38.38818356386561,125.3539704905601,4.921796922518014,8.57649722373958,15.84658515761013,1535.253776219534,124.3625021564768,16.11577250575602,9.254633501471343,124.3625021564769,124.3622562979829,9.254628203508528,-16.11767267980048, 2095.734879,-10.78165492, 13.55483334,-10.78165492, 1505.011878, 3.979907608, 13.55483334, 3.979907608, 3150.439301,77.08075536,2480,45.48951612903226,4.22741935483871,35.42701612903226,1016.8725306019,1016.8725306042,13.29367236161466,11.6903298080851,2.961173047683114,0.9880888504271633,0.1124951948481423,0.1040974148670624,0.0137471093543396,0.7722875320844155,0.06982486274928715,-0.6250822177084923,0.08926744890294297,0.7722797177456108,0.06987956053887798,-0.6250761052641646,0.08933502787505206,3.9139764471401,2.2432214034798,0.00086818866720474,0.0008740395356778,1.8835639472981e-05,20926662.87388792,3669.270724726752,317.0965119001193,20926663.19557084,6.879513406991464,317.0965119001193,0.010027377917377,1016.8725306042,-6.5413019554454e-09,0.0546822194,19.6969697,19.6969697,0.963445776,-3.11990072,317.155614,-178.770311,-3.11990072,3.10860237,0,1,0.523,0,-0.232018352,-0.174,0.348,0,-0.264735933,-0.661839833,-0.661742481,0,0,0.00153398437,-1,13.3988315,0,2.96139117,-2.96139117,0,-2.96139117,-0.0516762759,-0.00978521998,-0.241803572,0,0,0,-100,-90.9659725,-9.99090871,-26.1085814,0,0,0,-0,0,0,0.002,0,0,0,0,0,0,0,0,0,0,0,-825,-1.5,1.29953,29.1963,0,-0,-0,-0,0,130,130,0.000868690615205511296,1.80830986224071865e-05,20926663.5701397918,5.20491488502163246
2.5,5.233049346817245,3.579223330474852,3.672769002038825,0.3928330373231812,-0.9614477795421656,2.334196797237188,5.237129544253128,3.579190475151693,3.673667452297019,18.03199329,3802514.212,125.032953091,1541.09770125,124.6432940152923,4.909422697618373,8.554892424282315,-7.154837497373347,-0.2177854649306443,-0.2301245262232428,3.992091975488165,8.120553272101795,-8.455071438206168,-0.2864976366836543,-0.5495532720092058,-38.03536028204621,124.6432940152923,4.909422697618373,8.554892424282315,16.26891314791371,1536.053114409687,123.524398309956,16.54951182058239,10.05365800399386,123.524398309956,123.524135965763,10.053651800128,-16.55147358971429, 2095.734879,-10.78165492, 13.55483334,-10.78165492, 1505.011878, 3.979907608, 13.55483334, 3.979907608, 3150.439301,77.08075536,2480,45.48951612903226,4.22741935483871,35.42701612903226,1018.5063720383,1018.5063720405,13.90511447945413,11.95996393499203,3.400231765553433,0.9871846485805257,0.1172676077598702,0.1069411206126877,0.01668455870928316,0.7736588000077328,0.07112232202055989,-0.6224322860972781,0.09471919396149223,0.7736501630030514,0.0711790573226426,-0.6224258006096309,0.09478971367965859,3.9263381752296,2.2502990044942,0.00090212381210245,0.00090820337470845,2.1478294599117e-05,20926664.48004712,3822.835856461624,329.4909819243545,20926664.82921917,7.844715195406934,329.4909819243545,0.010445185330601,1018.5063720405,-3.2706509777221e-09,0.0623452396,19.6969697,19.6969697,0.963388498,-3.11778855,329.568206,-178.649284,-3.11778855,3.10305151,0,1,0.523,0,-0.242690031,-0.174,0.348,0,-0.265278271,-0.663195679,-0.663036418,0,0,0.00153398437,-1,13.9629545,0,3.40048223,-3.40048223,0,-3.40048223,-0.0593384149,-0.0120148931,-0.254704924,0,0,0,-100,-91.8256786,-10.083831,-26.6353046,0,0,0,-0,0,0,0.002,0,0,0,0,0,0,0,0,0,0,0,-825,-1.5,1.29953,29.1865,0,-0,-0,-0,0,130,130,0.000902624439598599367,2.07389119044793848e-05,20926665.2077167071,5.23712954425312915
2.6,5.277350540770453,3.482529617846441,3.899046002729781,0.4965367774385764,-0.9731800470315373,2.177844570107218,5.281424838652749,3.482478233515066,3.899969994002086,17.82387421,3780447.708,124.3123828,1541.85553185,123.9230196064625,4.884024828749336,8.532293385085154,-7.246237768915429,-0.3226872850940525,-0.2393807012999716,3.524147928427091,8.37005882769337,-8.593944745823372,-0.2745302521255248,-0.5387560417089928,-37.67687062217077,123.9230196064625,4.884024828749336,8.532293385085154,16.64477948169675,1536.877694788473,122.6718536815291,16.93681184021192,10.87792426648858,122.6718536815291,122.6715751670559,10.87791707056572,-16.93883359502449, 2095.734879,-10.78165492, 13.55483334,-10.78165492, 1505.011878, 3.979907608, 13.55483334, 3.979907608, 3150.439301,77.08075536,2480,45.48951612903226,4.22741935483871,35.42701612903226,1020.1812772043,1020.1812772025,14.52737490370062,12.20988579029923,3.863505124686568,0.9862417727242129,0.1220912692222151,0.1096742811531625,0.01981009255525018,0.7749245559534189,0.0723230203226472,-0.6198331732901007,0.1003401744115005,0.7749150404742962,0.07238177862973726,-0.6198263144638679,0.1004136348672521,3.9386878930934,2.2516345044444,0.00093582748039872,0.00094213417713,2.4343185565805e-05,20926666.12612174,3976.482189014721,341.8009102186012,20926666.50392514,8.891086399522464,341.8009102186012,0.010862992743825,1020.1812772025,0,0.0704308851,19.6969697,19.6969697,0.963329783,-3.11558604,341.899749,-178.52308,-3.11558604,3.09716838,0,1,0.523,0,-0.253550524,-0.174,0.348,0,-0.266036003,-0.665090007,-0.664882371,0,0,0.00306796875,-1,14.5392251,0,3.86378972,-3.86378972,0,-3.86378972,-0.0674231305,-0.0145200322,-0.268070556,0,0,0,-100,-92.6035724,-10.1677044,-27.106538,0,0,0,-0,0,0,0.002,0,0,0,0,0,0,0,0,0,0,0,-825,-1.5,1.29953,29.1771,0,-0,-0,-0,0,130,130,0.000936327167584414264,2.36173854684672018e-05,20926666.8863006234,5.28142483865274937
2.7,5.330547084062339,3.384735748557358,4.109636800565967,0.5679930633714233,-0.9831783639396088,2.021334721516672,5.334615335797035,3.384664628958294,4.110585785961149,17.61438265,3758105.348,123.582791148,1542.63700471,123.194075867939,4.850333378410037,8.508831006735662,-7.328321413279466,-0.3807060550558106,-0.2476482407759484,3.050375200594779,8.613812110648309,-8.722222975028176,-0.2623176796979257,-0.5273401776700628,-37.31368385266006,123.194075867939,4.850333378410037,8.508831006735662,16.97355202331421,1537.726937995678,121.8059563656846,17.27704104922999,11.72685441039448,121.8059563656846,121.8056620954924,11.72684613696242,-17.27912118995543, 2095.734879,-10.78165492, 13.55483334,-10.78165492, 1505.011878, 3.979907608, 13.55483334, 3.979907608, 3150.439301,77.08075536,2480,45.48951612903226,4.22741935483871,35.42701612903226,1021.8925695904,1021.892569584,15.16116056834336,12.43981921745735,4.349102084421288,0.9852578260558966,0.1269743129503254,0.1122966821436781,0.0231083367190894,0.7760829534838968,0.07344358019900352,-0.6172833359052562,0.1061252705671125,0.7760725023747074,0.07350434740751519,-0.6172761028672373,0.1062016704157277,3.9510591862163,2.24930206559,0.00096929586864692,0.00097582811386426,2.743714394708e-05,20926667.80743314,4130.212217537323,354.0249075878681,20926668.21501242,10.02112220180243,354.0249075878681,0.011280800157049,1021.892569584,0,0.0789061509,19.6969697,19.6969697,0.963269796,-3.11329394,354.149298,-178.391743,-3.11329394,3.09098522,0,1,0.523,0,-0.26461217,-0.174,0.348,0,-0.266953673,-0.667384182,-0.667142191,0,0,0.0061359375,-1,15.1271374,0,4.34942245,-4.34942245,0,-4.34942245,-0.0758974217,-0.017307004,-0.281919174,0,0,0,-100,-93.3074394,-10.2433909,-27.5225121,0,0,0,-0,0,0,0.002,0,0,0,0,0,0,0,0,0,0,0,-825,-1.5,1.29953,29.1682,0,-0,-0,-0,0,130,130,0.000969794962631994359,2.67253530961501739e-05,20926668.6012173221,5.33461533579703495
2.8,5.389412959769688,3.286050687950082,4.304759866310606,0.6073600553853908,-0.990673829587349,1.869674200196706,5.393475011384121,3.285958755030342,4.305733307872512,17.40388511,3735521.738,122.845299196,1543.44161592,122.457400443524,4.812956154132232,8.484578024305105,-7.400959243865606,-0.3937700818710965,-0.255333498481729,2.57163864086759,8.8517329414311,-8.840466313838911,-0.2500835277508546,-0.5158778465583481,-36.9465797276148,122.457400443524,4.812956154132232,8.484578024305105,17.25469201851714,1538.600266351084,120.927737745099,17.5696612928831,12.599872240767,120.9277377450989,120.9274282315771,12.59986280616059,-17.57179823297606, 2095.734879,-10.78165492, 13.55483334,-10.78165492, 1505.011878, 3.979907608, 13.55483334, 3.979907608, 3150.439301,77.08075536,2480,45.48951612903226,4.22741935483871,35.42701612903226,1023.6355143525,1023.6355143562,15.80680465434165,12.6495454003526,4.855110329386778,0.9842306497631823,0.131921986913984,0.1148083796401881,0.02656413747526142,0.7771325056466849,0.07449842780708416,-0.6147812076469069,0.1120674780914968,0.7771210606718232,0.07456119019247709,-0.6147735989277662,0.112146814661779,3.9634586885845,2.2453661154023,0.001002525463554,0.0010092816479422,3.0766843784975e-05,20926669.51924432,4284.028379496162,366.161690799313,20926669.95774632,11.23726024851021,366.161690799313,0.011698607570273,1023.6355143562,3.2706509777201e-09,0.0877376608,19.6969697,19.6969697,0.963208702,-3.11091293,366.316042,-178.255311,-3.11091293,3.08453471,0,1,0.523,0,-0.275880785,-0.174,0.348,0,-0.267974966,-0.669937415,-0.669675124,0,0,0.00766992187,-1,15.7258899,0,4.85546796,-4.85546796,0,-4.85546796,-0.084727916,-0.0203802423,-0.296261028,0,0,0,-100,-93.9443243,-10.3116714,-27.8834697,0,0,0,-0,0,0,0.002,0,0,0,0,0,0,0,0,0,0,0,-825,-1.5,1.29953,29.1597,0,-0,-0,-0,0,130,130,0.0010030242791878093,3.00694860505944628e-05,20926670.3477323912,5.39347501138412078
2.9,5.450784033828347,3.186755789120992,4.485106775041349,0.6157849301053845,-0.9950236724659632,1.727253095772463,5.454839724666481,3.186642085005478,4.486104144909595,17.19274181,3712731.588,122.10103164,1544.26884369,121.7139468122332,4.776253199373734,8.459579443068943,-7.463962293765641,-0.3649548406101228,-0.2625921284696098,2.088745777716838,9.083581507443499,-8.949222347934068,-0.2380449990631593,-0.5048878775653217,-36.57624664941719,121.7139468122332,4.776253199373734,8.459579443068943,17.48774362477395,1539.497085818366,120.0381738271515,17.81421730359114,13.4963852083523,120.0381738271515,120.0378496790644,13.4963745318421,-17.8164094730628, 2095.734879,-10.78165492, 13.55483334,-10.78165492, 1505.011878, 3.979907608, 13.55483334, 3.979907608, 3150.439301,77.08075536,2480,45.48951612903226,4.22741935483871,35.42701612903226,1025.4053269699,1025.405326975,16.46428260362547,12.83890087644577,5.379648403918761,0.9831583876610737,0.1369367205220395,0.117209687890932,0.03016303049856147,0.7780721220471609,0.07549950882444509,-0.6123252536443499,0.1181582870969198,0.778059624152392,0.07556425302170221,-0.6123172672304954,0.1182405564114476,3.9758793159504,2.2418237166398,0.0010355130266388,0.0010424915190592,3.4338799487126e-05,20926671.25676853,4437.933053905051,378.2100769791084,20926671.72734247,12.54187988164358,378.2100769791084,0.012116414983497,1025.405326975,0,0.0968925772,19.6969697,19.6969697,0.96314667,-3.10844364,378.399304,-178.113821,-3.10844364,3.07784909,0,1,0.523,0,-0.28735594,-0.174,0.348,0,-0.269044503,-0.672611256,-0.672342313,0,0,0.0107378906,-1,16.3344303,0,5.38004468,-5.38004468,0,-5.38004468,-0.0938817796,-0.0237423467,-0.311098287,0,0,0,-100,-94.5206012,-10.3732529,-28.1896623,0,0,0,-0,0,0,0.002,0,0,0,0,0,0,0,0,0,0,0,-825,-1.5,1.29953,29.1515,0,-0,-0,-0,0,130,130,0.00103601184827879084,3.36562913166624884e-05,20926672.1210600846,5.45483972466648215
3,5.51165211294359,3.087186864006245,4.651777165798701,0.5952896805870193,-0.9958075061257862,1.597776653016914,5.515701276294034,3.087050539459458,4.652797947476564,16.981307,3689769.767,121.351118887,1545.1181348,120.9646895190526,4.744231892837567,8.433872681826831,-7.517097554781702,-0.2982703358998542,-0.2694288420936282,1.602510687712822,9.308998767639249,-9.049027054322837,-0.2264013519506727,-0.4948255780793728,-36.20334431270962,120.9646895190526,4.744231892837567,8.433872681826831,17.67233167597983,1540.416772079919,119.1381864437702,18.01033446184104,14.41577048128772,119.1381864437701,119.1378483645549,14.4157584862854,-18.01258031034146, 2095.734879,-10.78165492, 13.55483334,-10.78165492, 1505.011878, 3.979907608, 13.55483334, 3.979907608, 3150.439301,77.08075536,2480,45.48951612903226,4.22741935483871,35.42701612903226,1027.1971814819,1027.1971814804,17.13323779969033,13.00777386147045,5.920912377849153,0.9820395305017766,0.1420182750249674,0.1195011569470095,0.03389164467990568,0.7789011243484388,0.07645610925685949,-0.6099140176163984,0.12438807403069,0.7788875139068316,0.07652282224670075,-0.6099056510666819,0.1244732708349938,3.9883091593877,2.2405541749959,0.0010682555792369,0.0010754547284782,3.8159359350637e-05,20926673.01517751,4591.92855895934,390.1689781357447,20926673.51897506,13.93729977339444,390.1689781357447,0.012534222396721,1027.1971814804,0,0.106339416,19.6969697,19.6969697,0.963083869,-3.10588663,390.398534,-177.967304,-3.10588663,3.07095926,0,1,0.523,0,-0.299031411,-0.174,0.348,0,-0.270109495,-0.675273738,-0.675010988,0,0,0.0138058594,-1,16.9515044,0,5.92134852,-5.92134852,0,-5.92134852,-0.103327532,-0.0273942191,-0.32642563,0,0,0,-100,-95.0420378,-10.4287754,-28.4413557,0,0,0,-0,0,0,0.002,0,0,0,0,0,0,0,0,0,0,0,-825,-1.5,1.29953,29.1437,0,-0,-0,-0,0,130,130,0.00106875466329850997,3.74921056042777363e-05,20926673.9163717255,5.51570127629403384
3.1,5.569245749654335,2.987710890551961,4.806208210078079,0.5486131222786674,-0.9925898209285696,1.484203727719529,5.573288213188215,2.987551190645266,4.807251899673478,16.76992942,3666671.371,120.596699222,1545.988895,120.2106278590857,4.720463601024505,8.407498821899857,-7.560145637638922,-0.1984452564332102,-0.2757716715863161,1.11377499328394,9.527537144324334,-9.140444995153368,-0.2153692273541097,-0.4860775030454018,-35.82853425217031,120.2106278590857,4.720463601024505,8.407498821899857,17.80816421135896,1541.358660529556,118.2286444227035,18.15772132146288,15.35736493368862,118.2286444227034,118.2282932084435,15.3573515490016,-18.16001932111119, 2095.734879,-10.78165492, 13.55483334,-10.78165492, 1505.011878, 3.979907608, 13.55483334, 3.979907608, 3150.439301,77.08075536,2480,45.48951612903226,4.22741935483871,35.42701612903226,1029.0062185489,1029.0062185479,17.8130151467392,13.15609804522152,6.477215843363678,0.9808729405705237,0.1471639658873296,0.1216835339571485,0.03773803339531814,0.7796192362942632,0.07737477843444007,-0.6075461666327309,0.1307464931539085,0.779604453328177,0.07744344753603251,-0.6075374172523355,0.1308346109520321,4.0007365319273,2.2432766031732,0.001100750387826,0.0011081685242566,4.2234695814798e-05,20926674.78960959,4746.017148475925,402.03739580065,20926675.32778493,15.42577436584816,402.03739580065,0.012952029809945,1029.0062185479,0,0.116048743,19.6969697,19.6969697,0.963020468,-3.10324245,402.313306,-177.815792,-3.10324245,3.06389412,0,1,0.523,0,-0.310895764,-0.174,0.348,0,-0.271121182,-0.677802954,-0.67755811,0,0,0.0199417969,-1,17.5757062,0,6.47769296,-6.47769296,0,-6.47769296,-0.113035742,-0.0313352296,-0.342230994,0,0,0,-100,-95.5138529,-10.4788189,-28.6388382,0,0,0,-0,0,0,0.002,0,0,0,0,0,0,0,0,0,0,0,-825,-1.5,1.29953,29.1361,0,-0,-0,-0,0,130,130,0.00110124996595245312,4.15830861936589859e-05,20926675.7288040556,5.57328821318821532
3.2,5.621089022328417,2.888896321483328,4.95008284378158,0.4789725578858505,-0.9825173761534037,1.388473121715031,5.62512460814164,2.888712569238644,4.951148951520592,16.55894163,3643470.577,119.838881155,1546.88047346,119.4527472612,4.708021731550855,8.380521435895549,-7.593483360336716,-0.07069142171723186,-0.2811292533529475,0.6233064026459232,9.738609601124724,-9.22458927370154,-0.2057147547420758,-0.4789791632490093,-35.45249864301476,119.4527472612,4.708021731550855,8.380521435895549,17.89502699402241,1542.322033308418,117.3103266919732,18.25616412335717,16.32045217921268,117.3103266919731,117.3099632292069,16.32043734034752,-18.25851277054884, 2095.734879,-10.78165492, 13.55483334,-10.78165492, 1505.011878, 3.979907608, 13.55483334, 3.979907608, 3150.439301,77.08075536,2480,45.48951612903226,4.22741935483871,35.42701612903226,1030.8275536932,1030.8275536959,18.50270066063126,13.28384978603068,7.047023891516658,0.9796578513985117,0.1523689385632712,0.1237577612696334,0.04169193303124449,0.7802265821639863,0.07825934120636895,-0.6052204922538708,0.1372228543451552,0.7802105665361421,0.07832995407242288,-0.6052113573166689,0.1373138854423672,4.0131602372232,2.2515164511999,0.0011329949460306,0.00114063038313,4.6570792839728e-05,20926676.57517789,4900.201007283905,413.8144144559427,20926677.14888772,17.00948926093952,413.8144144559427,0.013369837223169,1030.8275536959,3.2706509777173e-09,0.125993769,19.6969697,19.6969697,0.96295664,-3.10051162,414.143309,-177.659316,-3.10051162,3.05667992,0,1,0.523,0,-0.322933047,-0.174,0.348,0,-0.272035889,-0.680089724,-0.679873146,0,0,0.0199417969,-1,18.2055281,0,7.04754299,-7.04754299,0,-7.04754299,-0.122979625,-0.0355634067,-0.358496454,0,0,0,-100,-95.9407686,-10.5239083,-28.7824211,0,0,0,-0,0,0,0.002,0,0,0,0,0,0,0,0,0,0,0,-825,-1.5,1.29953,29.1288,0,-0,-0,-0,0,130,130,0.0011334952286218222,4.59351989927448147e-05,20926677.5534676723,5.62512460814164061
3.3,5.665062119176854,2.791184699589554,5.085279173420879,0.3902628599686318,-0.9703506934470602,1.312475371559328,5.669090643190415,2.790976278412189,5.086367225965329,16.34867416,3620202.192,119.078794381,1547.79217379,118.6920680150295,4.709447006597609,8.353045577240501,-7.616146734450189,0.07952577192710386,-0.2854500520172039,0.1323689046280023,9.941859722878332,-9.301332585579015,-0.1968445885652343,-0.4737405703408578,-35.07611624484991,118.6920680150295,4.709447006597609,8.353045577240501,17.93281028123934,1543.306126253641,116.3839689846247,18.3055535651065,17.30426950982698,116.3839689846247,116.3835942473583,17.30425316030889,-18.30795138288302, 2095.734879,-10.78165492, 13.55483334,-10.78165492, 1505.011878, 3.979907608, 13.55483334, 3.979907608, 3150.439301,77.08075536,2480,45.48951612903226,4.22741935483871,35.42701612903226,1032.6562858261,1032.6562858303,19.20116530074536,13.39105204106522,7.628981489406608,0.9783938402874541,0.1576264796216591,0.125725040942243,0.04574494824263892,0.7807237129606734,0.07911098693893244,-0.6029358454888067,0.1438064740932962,0.7807064045292715,0.07918353154524566,-0.6029263224986758,0.1439004096492544,4.0255973821263,2.2665818031014,0.0011649869517173,0.0011728379874521,5.1173431316082e-05,20926678.36697889,5054.482245896535,425.4991931688386,20926678.97738252,18.69055589126856,425.4991931688386,0.013787644636393,1032.6562858303,-6.5413019554331e-09,0.136150846,19.6969697,19.6969697,0.962892557,-3.09769467,425.888339,-177.497905,-3.09769467,3.04933979,0,1,0.523,0,-0.335123555,-0.174,0.348,0,-0.272816058,-0.682040144,-0.681860542,0,0,0.0260777344,-1,18.8394079,0,7.62954345,-7.62954345,0,-7.62954345,-0.133135533,-0.0400756443,-0.375199199,0,0,0,-100,-96.3270576,-10.5645195,-28.8724709,0,0,0,-0,0,0,0.002,0,0,0,0,0,0,0,0,0,0,0,-825,-1.5,1.29953,29.1217,0,-0,-0,-0,0,130,130,0.00116548813150148104,5.05542046788273714e-05,20926679.3854558878,5.66909064319041622
3.4,5.699437265267711,2.694787570931606,5.213813929428753,0.2864052407166341,-0.9560408398800775,1.257035995043102,5.703458536705256,2.694553906282479,5.214923470014686,16.13946181,3596902.378,118.317613728,1548.72326061,117.9296720472967,4.726723106536356,8.325158126676296,-7.627834317853376,0.2465636126030617,-0.2889982224810907,-0.3580075750106886,10.13681497111453,-9.371171797886221,-0.1888341342083653,-0.4705245808729975,-34.70014878880254,117.9296720472967,4.726723106536356,8.325158126676296,17.92151922759444,1544.310133523379,115.4502862575541,18.30589520329282,18.3080125135929,115.4502862575541,115.4499013037341,18.30799460629533,-18.30834074395915, 2095.734879,-10.78165492, 13.55483334,-10.78165492, 1505.011878, 3.979907608, 13.55483334, 3.979907608, 3150.439301,77.08075536,2480,45.48951612903226,4.22741935483871,35.42701612903226,1034.4875088818,1034.4875088834,19.90710998677505,13.47773621117236,8.221924249830241,0.9770808264369187,0.1629283875085148,0.1275865324181817,0.04989063938984323,0.7811113913093415,0.07992846985333156,-0.6006913492449552,0.1504869994915349,0.7810927300428949,0.08000293451575753,-0.6006814362203038,0.150583829554563,4.038054194574,2.2895439212837,0.0011967243029313,0.0012047892211051,5.6048177895245e-05,20926680.16010402,5208.862896433616,437.0909641082677,20926680.8083634,20.47100744020281,437.0909641082677,0.014205452049617,1034.4875088834,0,0.146499649,19.6969697,19.6969697,0.962828389,-3.09479218,437.548302,-177.331592,-3.09479218,3.04189348,0,1,0.523,0,-0.347444614,-0.174,0.348,0,-0.273430961,-0.683577402,-0.683441773,0,0,0.0337476563,-1,19.4757689,0,8.22252989,-8.22252989,0,-8.22252989,-0.143483147,-0.044867916,-0.39231253,0,0,0,-100,-96.6765862,-10.6010831,-28.9094239,0,0,0,-0,0,0,0.002,0,0,0,0,0,0,0,0,0,0,0,-825,-1.5,1.29953,29.1149,0,-0,-0,-0,0,130,130,0.00119722655909080861,5.54456482860126088e-05,20926681.2198565081,5.7034585367052566
3.5,5.722880903965835,2.59992063050041,5.33775617723608,0.1713521530533468,-0.9395703630941498,1.222332108878347,5.726894724511747,2.599661171506806,5.338886765185046,15.93163497,3573607.728,117.556528866,1549.67295234,117.1666709568219,4.761271028093668,8.296926789998665,-7.628252309799954,0.4248404958522727,-0.2919029727616547,-0.8468361304149994,10.32301985542144,-9.434565239172882,-0.1817357540186403,-0.4694234475248463,-34.32529206152624,117.1666709568219,4.761271028093668,8.296926789998665,17.86125951383804,1545.333202563094,114.5099457053143,18.25729507921136,19.33083003966229,114.5099457053143,114.509551673273,19.33081053815796,-18.25978692618225, 2095.734879,-10.78165492, 13.55483334,-10.78165492, 1505.011878, 3.979907608, 13.55483334, 3.979907608, 3150.439301,77.08075536,2480,45.48951612903226,4.22741935483871,35.42701612903226,1036.3163224272,1036.3163224264,20.61911058595256,13.54392501793832,8.824886521785263,0.9757190342875044,0.1682653398662736,0.1293432403793884,0.05412455724444128,0.7813904862361464,0.08070834421512821,-0.5984864517070779,0.1572546925111063,0.7813704122860105,0.08078471761831657,-0.5984761474797513,0.1573544060429,4.0505262532879,2.3212268763561,0.0012282050868589,0.0012364821583868,6.120037254857e-05,20926681.94965034,5363.344908079893,448.5890285137237,20926682.63693006,22.35279429776983,448.5890285137237,0.014623259462841,1036.3163224264,3.270650977715e-09,0.157023326,19.6969697,19.6969697,0.96276431,-3.0918047,449.123201,-177.160409,-3.0918047,3.03435728,0,1,0.523,0,-0.359871369,-0.174,0.348,0,-0.27385675,-0.684641874,-0.68455549,0,0,0.0337476563,-1,20.1130573,0,8.82553658,-8.82553658,0,-8.82553658,-0.154005613,-0.0499354853,-0.409806854,0,0,0,-100,-96.9928526,-10.6339895,-28.8937765,0,0,0,-0,0,0,0.002,0,0,0,0,0,0,0,0,0,0,0,-825,-1.5,1.29953,29.1082,0,-0,-0,-0,0,130,130,0.00122870858922445245,6.06148475316555603e-05,20926683.0517626479,5.72689472451174808
3.6,5.734452982995935,2.506797546252181,5.459165394336332,0.0490020283496835,-0.9210093924118676,1.207957886076706,5.738459145458671,2.506511747863929,5.460316604594247,15.72551996,3550355.324,116.796746061,1550.64042484,116.4042053809753,4.813962321186134,8.268411387931948,-7.617113237429098,0.6089851419101304,-0.29420338913447,-1.333146886887469,10.50006745767105,-9.491940284159512,-0.1755764719471352,-0.4704640332125335,-33.95221115508363,116.4042053809753,4.813962321186134,8.268411387931948,17.75223450451615,1546.374437454278,113.5635703001412,18.15995687534518,20.3718275433663,113.5635703001412,113.563168404817,20.37180642328319,-18.16249364480565, 2095.734879,-10.78165492, 13.55483334,-10.78165492, 1505.011878, 3.979907608, 13.55483334, 3.979907608, 3150.439301,77.08075536,2480,45.48951612903226,4.22741935483871,35.42701612903226,1038.1378415115,1038.1378415144,21.33566119089318,13.58962444150852,9.437104700233697,0.9743089361886035,0.1736272490695203,0.1309959852644673,0.05844422202556866,0.7815619117812462,0.08144523055584806,-0.596320906644055,0.1641006665792688,0.7815403655118868,0.0815235017853331,-0.5963102111634009,0.1642032514734811,4.0630036743802,2.3622051714217,0.0012594275672641,0.001267915051363,6.6635116159665e-05,20926683.73073031,5517.930142555813,459.9927521072757,20926684.45819771,24.33777952861055,459.9927521072757,0.015041066876065,1038.1378415144,-3.2706509777142e-09,0.167708549,19.6969697,19.6969697,0.962700489,-3.08873287,460.613142,-176.984394,-3.08873287,3.02674388,0,1,0.523,0,-0.372377536,-0.174,0.348,0,-0.274076448,-0.685191121,-0.685157544,0,0,0.0429515625,-1,20.749773,0,9.43779985,-9.43779985,0,-9.43779985,-0.164689607,-0.0552731116,-0.427650647,0,0,0,-100,-97.2790221,-10.6635923,-28.826086,0,0,0,-0,0,0,0.002,0,0,0,0,0,0,0,0,0,0,0,-825,-1.5,1.29953,29.1017,0,-0,-0,-0,0,130,130,0.0012599324803008018,6.60668811455837173e-05,20926684.8762828186,5.73845914545866975
3.7,5.733597470676534,2.415620464221933,5.580036504670527,-0.07688958111487164,-0.9005249877525238,1.212998408191162,5.737595757165555,2.415307770407615,5.58120792738872,15.52143919,3527182.767,116.039489332,1551.62481775,115.6434445042623,4.885146106509628,8.239670813971827,-7.594133075363437,0.7939611786564846,-0.2958896001571603,-1.815976084292291,10.66762420070299,-9.543700088815614,-0.170357914245027,-0.4736142542120143,-33.58156115039002,115.6434445042623,4.885146106509628,8.239670813971827,17.5947442084586,1547.432905069936,112.6117415406649,18.01418087563665,21.4300732377025,112.6117415406649,112.6113330695745,21.43005048807331,-18.01676121801403, 2095.734879,-10.78165492, 13.55483334,-10.78165492, 1505.011878, 3.979907608, 13.55483334, 3.979907608, 3150.439301,77.08075536,2480,45.48951612903226,4.22741935483871,35.42701612903226,1039.9472063929,1039.9472063922,22.05521466640116,13.61481623259673,10.05801426029328,0.9728511856056822,0.1790036041250605,0.1325453792790628,0.06284904778615731,0.7816265628059479,0.08213211089632982,-0.5941947431421916,0.1710170748728257,0.7816034847842853,0.08221226947210913,-0.5941836577745532,0.1711225179658116,4.0754743626509,2.412807918237,0.0012903901727715,0.0012990863180711,7.2357259429803e-05,20926685.49848161,5672.62037006827,471.3015608143884,20926686.26730672,26.42773481953736,471.3015608143884,0.01545887428929,1039.9472063922,-9.8119529331403e-09,0.178545465,19.6969697,19.6969697,0.962637098,-3.08557736,472.018317,-176.803583,-3.08557736,3.01906249,0,1,0.523,0,-0.384936113,-0.174,0.348,0,-0.274079804,-0.685199511,-0.685220649,0,0,0.0460195312,-1,21.3844958,0,10.0587551,-10.0587551,0,-10.0587551,-0.175525277,-0.0608752459,-0.445811359,0,0,0,-100,-97.5379588,-10.6902118,-28.706973,0,0,0,-0,0,0,0.002,0,0,0,0,0,0,0,0,0,0,0,-825,-1.5,1.29953,29.0953,0,-0,-0,-0,0,130,130,0.00129089665924056072,7.18065784632474733e-05,20926686.6885507889,5.73759575716555492
3.8,5.720124152857842,2.326571025350368,5.702252563773909,-0.2027938809718423,-0.878361984852068,1.236108759437175,5.724114332506896,2.326230853749431,5.703443803927987,15.31971126,3504128.195,115.286001055,1552.62524283,114.8855858742447,4.974687371584494,8.210766299770452,-7.559028125332476,0.9751663656569107,-0.2969349439430253,-2.294366940502318,10.82544775357002,-9.590229090499465,-0.1660581006921886,-0.4787903699599946,-33.21399597451238,114.8855858742447,4.974687371584494,8.210766299770452,17.38918470904073,1548.507643361874,111.6550015879164,17.82036339644522,22.50460637656056,111.6550015879164,111.6545878968808,22.50458200115393,-17.82298599769278, 2095.734879,-10.78165492, 13.55483334,-10.78165492, 1505.011878, 3.979907608, 13.55483334, 3.979907608, 3150.439301,77.08075536,2480,45.48951612903226,4.22741935483871,35.42701612903226,1041.739592202,1041.7395922018,22.77621971282658,13.61945111903456,10.68724115756905,0.9713465436362797,0.1843837918702972,0.1339918068018351,0.06734021956723506,0.7815852491766559,0.08276064273008259,-0.5921082274987627,0.1779972505760733,0.7815605801230228,0.08284267863993709,-0.5920967553133382,0.1781055376481623,4.0879255511248,2.473128705967,0.0013210914858143,0.0013299945313941,7.8371393775097e-05,20926687.24807671,5827.41726598922,482.514936727941,20926688.05943237,28.62433715455336,482.514936727941,0.015876681702514,1041.7395922018,0,0.189527546,19.6969697,19.6969697,0.962574305,-3.08233886,483.339011,-176.618017,-3.08233886,3.0113189,0,1,0.523,0,-0.397520025,-0.174,0.348,0,-0.273862981,-0.684657452,-0.684733648,0,0,0.0521554688,-1,22.0159066,0,10.6880284,-10.6880284,0,-10.6880284,-0.186506095,-0.0667362118,-0.464256237,0,0,0,-100,-97.7722543,-10.7141382,-28.5371242,0,0,0,-0,0,0,0.002,0,0,0,0,0,0,0,0,0,0,0,-825,-1.5,1.29953,29.0891,0,-0,-0,-0,0,130,130,0.00132159971002099373,7.7838510947408077e-05,20926688.4837353975,5.72411433250689594
3.9,5.694182513646068,2.239804031105737,5.827545482213197,-0.3254815285642114,-0.8548101043814648,1.275595424898286,5.698164339930035,2.239435759469133,5.828756159255388,15.12065088,3481230.288,114.537542031,1553.64079373,114.1318554978168,5.082014013564105,8.181761954694011,-7.511512684475615,1.148506690837268,-0.2973179607165299,-2.767378407567897,10.9733985092661,-9.631897337079305,-0.1626345872565383,-0.4858647729320145,-32.85016890067582,114.1318554978168,5.082014013564105,8.181761954694011,17.13604708034845,1549.597671111816,110.693854911617,17.57899570425395,23.59444700194536,110.6938549116169,110.6934374202632,23.59442102056813,-17.58165928694793, 2095.734879,-10.78165492, 13.55483334,-10.78165492, 1505.011878, 3.979907608, 13.55483334, 3.979907608, 3150.439301,77.08075536,2480,45.48951612903226,4.22741935483871,35.42701612903226,1043.5102184229,1043.5102184267,23.49715382690036,13.60344305200866,11.32458842688567,0.9697958014247722,0.1897573909160623,0.1353354102130302,0.07192053165879077,0.7814386308832696,0.08332148123624356,-0.5900618183810563,0.1850358003650117,0.7814123115875631,0.08340538496700667,-0.5900499644140875,0.1851469161310024,4.100344033228,2.5430402428566,0.0013515302320976,0.0013606384084524,8.4681844706701e-05,20926688.97473249,5982.322408441579,493.6324142603821,20926689.82979427,30.92916639677787,493.6324142603821,0.016294489115738,1043.5102184267,0,0.200651354,19.6969697,19.6969697,0.962512277,-3.07901816,494.575589,-176.427741,-3.07901816,3.00351579,0,1,0.523,0,-0.410102699,-0.174,0.348,0,-0.273428114,-0.683570285,-0.683700438,0,0,0.0598253906,-1,22.6428031,0,11.3254226,-11.3254226,0,-11.3254226,-0.197628625,-0.0728503684,-0.482953068,0,0,0,-100,-97.9842535,-10.7356347,-28.317294,0,0,0,-0,0,0,0.002,0,0,0,0,0,0,0,0,0,0,0,-825,-1.5,1.29953,29.0831,0,-0,-0,-0,0,130,130,0.00135204036265660341,8.41669861176286825e-05,20926690.2570502125,5.69816433993003368
4,5.656229010411291,2.15544462134839,5.957464893069915,-0.4420803701925924,-0.8301676830785261,1.329497327762968,5.660202218110647,2.155047576016543,5.958694640619915,14.92456873,3458528.247,113.795391025,1554.67055648,113.3835081024559,5.206170158788904,8.152723549652968,-7.451298217432638,1.310446374821252,-0.2970352617617564,-3.234098252380221,11.11144535957575,-9.669063912533007,-0.1600284616451752,-0.4946739724261203,-32.49072794660905,113.3835081024559,5.206170158788904,8.152723549652968,16.83591518349562,1550.701998538173,109.728769551416,17.29066181427867,24.69860654724302,109.728769551416,109.7283497384937,24.69857899700357,-17.29336513853227, 2095.734879,-10.78165492, 13.55483334,-10.78165492, 1505.011878, 3.979907608, 13.55483334, 3.979907608, 3150.439301,77.08075536,2480,45.48951612903226,4.22741935483871,35.42701612903226,1045.2543583624,1045.2543583599,24.21655171598513,13.56666490226801,11.97001893309145,0.9681997009019501,0.1951144328135643,0.1365760830547711,0.0765941957241647,0.7811871571574666,0.08380459962662815,-0.5880561156164626,0.1921286534063397,0.7811591283649411,0.08389036219149379,-0.588043887106976,0.1922425814943802,4.1127155185595,2.6222128274534,0.0013817052704579,0.0013910168003954,9.1292668009863e-05,20926690.67371954,6137.337276907766,504.6535764405088,20926691.57366585,33.3437038926204,504.6535764405088,0.016712296528962,1045.2543583599,-3.270650977711e-09,0.211916242,19.6969697,19.6969697,0.962451181,-3.07561607,505.728496,-176.232801,-3.07561607,2.995653,0,1,0.523,0,-0.422658561,-0.174,0.348,0,-0.272782747,-0.681956868,-0.682138591,0,0,0.0690292969,-1,23.2641108,0,11.9709007,-11.9709007,0,-11.9709007,-0.208892217,-0.0792122523,-0.501870813,0,0,0,-100,-98.1760782,-10.7549396,-28.0483048,0,0,0,-0,0,0,0.002,0,0,0,0,0,0,0,0,0,0,0,-825,-1.5,1.29953,29.0772,0,-0,-0,-0,0,130,130,0.00138221748252595283,9.07960441938838797e-05,20926692.0037629828,5.66020221811064772
4.1,5.606989330857995,2.073588977690338,6.093355017407209,-0.5501165488944227,-0.8047084788681568,1.395664170554598,5.610953632726589,2.073162424276314,6.094603482999103,14.73177122,3436061.772,113.060843832,1555.71362027,112.641827390171,5.345873423978061,8.123716363207841,-7.378094437962285,1.458035467480011,-0.2961072314925595,-3.693657610753998,11.23966661319968,-9.702079772171714,-0.1581687513029635,-0.5050265091377018,-32.13630879428137,112.641827390171,5.345873423978061,8.123716363207841,16.48946206010092,1551.819638229958,108.7601780677075,16.95603488687763,25.81609876816513,108.7601780677075,108.7597574662699,25.81606970468947,-16.9587767510774, 2095.734879,-10.78165492, 13.55483334,-10.78165492, 1505.011878, 3.979907608, 13.55483334, 3.979907608, 3150.439301,77.08075536,2480,45.48951612903226,4.22741935483871,35.42701612903226,1046.9673481882,1046.9673481884,24.93302891241232,13.50894597193113,12.62363528307201,0.9665588561138633,0.200445626279964,0.1377134724637306,0.08136662752673511,0.7808310125643599,0.08419959850222336,-0.5860918028426048,0.1992730691048994,0.7808012148361513,0.08428721146205373,-0.5860792094343403,0.1993897920234634,4.1250234922339,2.7101357147126,0.0014116155830237,0.0014211286824951,9.8207648882067e-05,20926692.34037136,6292.463251919331,515.5780513203578,20926693.28638341,35.86933215673616,515.5780513203578,0.017130103942186,1046.9673481884,3.2706509777101e-09,0.223323999,19.6969697,19.6969697,0.962391178,-3.07213345,516.798249,-176.033247,-3.07213345,2.98772786,0,1,0.523,0,-0.435163447,-0.174,0.348,0,-0.271939182,-0.679847955,-0.680077739,0,0,0.07363125,-1,23.8788892,0,12.6245652,-12.6245652,0,-12.6245652,-0.220298662,-0.0858166963,-0.520980143,0,0,0,-100,-98.3496482,-10.7722691,-27.7310458,0,0,0,-0,0,0,0.002,0,0,0,0,0,0,0,0,0,0,0,-825,-1.5,1.29953,29.0714,0,-0,-0,-0,0,130,130,0.00141213005996700764,9.77294576079515984e-05,20926693.7192048021,5.61095363272658876
4.2,5.547417309104309,1.994308066009972,6.236339165049097,-0.6475389227325995,-0.7786549984691935,1.471830120552131,5.551372392294477,1.993851202380118,6.237606009963463,14.54256023,3413871.015,112.335211882,1556.76908805,111.9081260850688,5.499573976658164,8.09480270551111,-7.291612420247001,1.588917216443292,-0.2945786387274545,-4.145244965253944,11.35824692421242,-9.731290261715623,-0.1569768846634416,-0.5167105813950031,-31.78752712335238,111.9081260850688,5.499573976658164,8.09480270551111,16.0974448847928,1552.949615965641,107.7884782268081,16.57587218351187,26.94595055926443,107.7884782268081,107.7880584193133,26.94592005785799,-16.57865142488252, 2095.734879,-10.78165492, 13.55483334,-10.78165492, 1505.011878, 3.979907608, 13.55483334, 3.979907608, 3150.439301,77.08075536,2480,45.48951612903226,4.22741935483871,35.42701612903226,1048.6445956863,1048.6445956861,25.64530052056317,13.43007157865605,13.28565790559684,0.9648736772308492,0.2057425418114494,0.1387469923455186,0.08624422062408404,0.7803700725850077,0.08449599641529768,-0.5841695844570802,0.2064676076257436,0.7803384461389237,0.08458545189180283,-0.584156638362718,0.2065871067189773,4.137247877235,2.8061404785742,0.0014412602655989,0.0014509731444656,0.00010543030405728,20926693.97009302,6447.701615837533,526.4055084636327,20926694.96335484,38.50733564762959,526.4055084636327,0.01754791135541,1048.6445956861,0,0.234878474,19.6969697,19.6969697,0.962332431,-3.06857122,527.785437,-175.829131,-3.06857122,2.97973561,0,1,0.523,0,-0.447594932,-0.174,0.348,0,-0.270913762,-0.677284405,-0.677557805,0,0,0.0766992187,-1,24.4863339,0,13.2866365,-13.2866365,0,-13.2866365,-0.231851808,-0.0926589249,-0.540253857,0,0,0,-100,-98.5067008,-10.7878189,-27.3664703,0,0,0,-0,0,0,0.002,0,0,0,0,0,0,0,0,0,0,0,-825,-1.5,1.29953,29.0657,0,-0,-0,-0,0,130,130,0.00144177720007802423,0.00010497073340596334,20926695.398778867,5.55137239229447665
4.3,5.478652128457533,1.917653689467042,6.38731133030071,-0.7327278553035173,-0.7521597143713653,1.555681281371431,5.482597650753368,1.917165641043005,6.388596229519857,14.35723273,3391996.529,111.619820449,1557.83608657,111.1837455755151,5.665513487680137,8.066039541125065,-7.191569614938967,1.701317734249869,-0.29251596685123,-4.588118218503382,11.46747106389106,-9.757037522033809,-0.1563709310512339,-0.5295012072757191,-31.44497159158072,111.1837455755151,5.665513487680137,8.066039541125065,15.66069860644182,1554.090981060073,106.8140334413458,16.15100871183575,28.08721229919826,106.8140334413458,106.8136160547357,28.08718045594796,-16.15382420684007, 2095.734879,-10.78165492, 13.55483334,-10.78165492, 1505.011878, 3.979907608, 13.55483334, 3.979907608, 3150.439301,77.08075536,2480,45.48951612903226,4.22741935483871,35.42701612903226,1050.2815882862,1050.2815882886,26.35219519654321,13.3297848319835,13.95640225544688,0.9631442991317607,0.2109977555017175,0.1396758480521778,0.09123411474953869,0.7798038705681559,0.08468349534247267,-0.5822901176684437,0.2137120678136221,0.7797703551054875,0.08477478602111371,-0.5822768337937058,0.2138343232058725,4.1493637168097,2.9094255313464,0.0014706385182012,0.001480549380937,0.00011296388683447,20926695.55836925,6603.053554694841,537.1356554903193,20926696.6000677,41.25890260403412,537.1356554903193,0.017965718768634,1050.2815882886,-3.2706509777084e-09,0.246585171,19.6969697,19.6969697,0.962275096,-3.06493035,538.690713,-175.620509,-3.06493035,2.97166979,0,1,0.523,0,-0.459932571,-0.174,0.348,0,-0.269726129,-0.674315323,-0.674627144,0,0,0.0797671875,-1,25.0857745,0,13.9574303,-13.9574303,0,-13.9574303,-0.243557159,-0.0997346251,-0.559667196,0,0,0,-100,-98.6488078,-10.8017667,-26.9555909,0,0,0,-0,0,0,0.002,0,0,0,0,0,0,0,0,0,0,0,-825,-1.5,1.29953,29.0601,0,-0,-0,-0,0,130,130,0.00147115811266839086,0.000112523118459525358,20926697.0379684977,5.4825976507533678
4.4,5.401974910176979,1.843665968078164,6.546934188222767,-0.8045743454046463,-0.725345046818793,1.644912180559238,5.405910496082889,1.843145785424378,6.548236830552186,14.17608046,3370479.2,110.916006486,1558.9137754,110.4700549177186,5.84178233280821,8.037477242807267,-7.077704773868611,1.794020751538696,-0.2898877630942991,-5.021715907808176,11.56766843976758,-9.779634799787624,-0.1562777290964297,-0.543166794620411,-31.10908293547696,110.4700549177186,5.84178233280821,8.037477242807267,15.18012782782091,1555.242815649422,105.8371731579793,15.68234910940024,29.23896713488883,105.8371731579794,105.8367598588082,29.2389340677029,-15.68519977398479, 2095.734879,-10.78165492, 13.55483334,-10.78165492, 1505.011878, 3.979907608, 13.55483334, 3.979907608, 3150.439301,77.08075536,2480,45.48951612903226,4.22741935483871,35.42701612903226,1051.8739005215,1051.8739005198,27.05266460039292,13.20779058238161,14.63625601149043,0.9613705162357726,0.2162049522629712,0.1404990725615788,0.09634396576260909,0.7791315772329075,0.08475221634214868,-0.580453940831873,0.2210073975151154,0.7790961117570451,0.08484533546268176,-0.5804403368584775,0.2211323880459308,4.1613404231428,3.019081036749,0.0014997496356874,0.0015098566820176,0.00012081139484105,20926697.10077183,6758.520161035494,547.7682346534571,20926698.19209662,44.12512788016738,547.7682346534571,0.018383526181858,1051.8739005198,-3.2706509777075e-09,0.258450858,19.6969697,19.6969697,0.962219329,-3.06121182,549.514789,-175.407437,-3.06121182,2.96352263,0,1,0.523,0,-0.472158069,-0.174,0.348,0,-0.268398471,-0.670996178,-0.671340664,0,0,0.101242969,-1,25.6766703,0,14.6373341,-14.6373341,0,-14.6373341,-0.255421481,-0.107039996,-0.579198064,0,0,0,-100,-98.7773915,-10.8142734,-26.4994732,0,0,0,-0,0,0,0.002,0,0,0,0,0,0,0,0,0,0,0,-825,-1.5,1.29953,29.0547,0,-0,-0,-0,0,130,130,0.00150027210230600999,0.000120389607317694346,20926698.6323445737,5.40591049608288898
4.5,5.318742567163441,1.772350733949676,6.715641744441256,-0.86246235896294,-0.6986974866847772,1.737278568523936,5.322667803914044,1.771797392540652,6.716961832768326,13.99938954,3349360.175,110.225116268,1560.00133952,109.7684465939224,6.026373763783353,8.009195213703364,-6.949787714863294,1.866331704286283,-0.2864901026885711,-5.445769716090396,11.65914620709535,-9.79933138432798,-0.1566417120730609,-0.5574753243398999,-30.78002444427147,109.7684465939224,6.026373763783353,8.009195213703364,14.65666442480513,1556.404227334726,104.8582025406262,15.17082526185962,30.40032363607246,104.8582025406262,104.8577950311907,30.40028948573202,-15.17371005177413, 2095.734879,-10.78165492, 13.55483334,-10.78165492, 1505.011878, 3.979907608, 13.55483334, 3.979907608, 3150.439301,77.08075536,2480,45.48951612903226,4.22741935483871,35.42701612903226,1053.4171991423,1053.4171991454,27.74578762513169,13.06376058145405,15.32565654060216,0.9595517280086553,0.2213589828063964,0.1412155647986122,0.1015817221016159,0.7783519892338906,0.08469289791773668,-0.5786614078183933,0.228355575801373,0.7783145118673215,0.08478783925181936,-0.5786475042468227,0.2284832789520146,4.173160276585,3.1341135825603,0.001528592999544,0.0015388944250296,0.00012897557840796,20926698.5929648,6914.102436979064,558.3030198413156,20926699.73510845,47.10701600444372,558.3030198413156,0.018801333595082,1053.4171991454,-3.2706509777066e-09,0.270483167,19.6969697,19.6969697,0.962165282,-3.05741665,560.258438,-175.189974,-3.05741665,2.95528549,0,1,0.523,0,-0.484255348,-0.174,0.348,0,-0.26695439,-0.667385975,-0.667757146,0,0,0.101242969,-1,26.2585942,0,15.3267854,-15.3267854,0,-15.3267854,-0.267452406,-0.114571773,-0.598827121,0,0,0,-100,-98.8937387,-10.825485,-25.999195,0,0,0,-0,0,0,0.002,0,0,0,0,0,0,0,0,0,0,0,-825,-1.5,1.29953,29.0494,0,-0,-0,-0,0,130,130,0.00152911855956920813,0.000128572950562555347,20926700.1775706336,5.32266780391404382
4.6,5.23039818194625,1.703716160678396,6.893649944033831,-0.9055643471506319,-0.6716481120648917,1.830667618840346,5.234312615532996,1.703128562711431,6.894987195610264,13.82744017,3328680.789,109.54850287,1561.09802329,109.0803396555621,6.217233738317695,7.981227114060658,-6.807549911706583,1.918026247736089,-0.2830558721988936,-5.859284456209174,11.74266076762895,-9.816609080065192,-0.1573499168496912,-0.5721988987981769,-30.45884605201135,109.0803396555621,6.217233738317695,7.981227114060658,14.09131918815123,1557.574384001422,103.8773861113882,14.61744795762892,31.57045059620567,103.8773861113882,103.8769861244191,31.57041552723056,-14.62036586823744, 2095.734879,-10.78165492, 13.55483334,-10.78165492, 1505.011878, 3.979907608, 13.55483334, 3.979907608, 3150.439301,77.08075536,2480,45.48951612903226,4.22741935483871,35.42701612903226,1054.90724729,1054.907247285,28.43077048475979,12.8973384877308,16.0250686079509,0.9576868966226912,0.2264558850562751,0.1418241184704586,0.1069554093099317,0.7774635196126997,0.08449706352324286,-0.576912637685533,0.2357594757503999,0.7774239674182192,0.08459382134023331,-0.5768984578384542,0.2358898675619317,4.1847796815867,3.2534699169452,0.0015571680699021,0.0015676620664697,0.00013745895084094,20926700.03070856,7069.801297976458,568.7398136614851,20926701.22486646,50.20548493071237,568.7398136614851,0.019219141008306,1054.907247285,-6.5413019554115e-09,0.28269021,19.6969697,19.6969697,0.962113101,-3.05354589,570.922483,-174.968179,-3.05354589,2.94694921,0,1,0.523,0,-0.496210554,-0.174,0.348,0,-0.265418938,-0.663547346,-0.663938778,0,0,0.105844922,-1,26.8312354,0,16.026249,-16.026249,0,-16.026249,-0.279658046,-0.12232724,-0.618537794,0,0,0,-100,-98.999014,-10.8355339,-25.4558998,0,0,0,-0,0,0,0.002,0,0,0,0,0,0,0,0,0,0,0,-825,-1.5,1.29953,29.0442,0,-0,-0,-0,0,130,130,0.00155769695258809707,0.000137075664971428925,20926701.6694069803,5.2343126155329962
4.7,5.138421185782223,1.637816232792864,7.080968417747932,-0.9339147990122454,-0.6438967812478645,1.923086960875353,5.142324316904811,1.637193210970206,7.082322564971415,13.66050622,3308482.467,108.887522936,1562.20313339,108.4071752517355,6.412305548676493,7.953574204571048,-6.650810696674834,1.949299393628246,-0.2796391855675502,-6.261902846949035,11.81877925211257,-9.831809651130992,-0.1583448500819136,-0.587118097118743,-30.14594070554877,108.4071752517355,6.412305548676493,7.953574204571048,13.48516453382571,1558.752517189688,102.8949487648226,14.02328960206161,32.74858040524727,102.8949487648227,102.8945580585084,32.74854460669707,-14.0262396680343, 2095.734879,-10.78165492, 13.55483334,-10.78165492, 1505.011878, 3.979907608, 13.55483334, 3.979907608, 3150.439301,77.08075536,2480,45.48951612903226,4.22741935483871,35.42701612903226,1056.3399128281,1056.3399128266,29.10694835303905,12.70815139312397,16.73496680169232,0.9557744989300985,0.2314929022678557,0.1423235104477597,0.1124729379377592,0.7764642263343988,0.08415717020906326,-0.5752074182221315,0.2432227414275987,0.7764225351411066,0.08425573922100635,-0.5751929882080352,0.2433557964168725,4.1961355820617,3.3760592558765,0.001585474373548,0.0015961591299391,0.00014626380707532,20926701.40986824,7225.617579629559,579.0784430624713,20926702.6572386,53.4213728515324,579.0784430624713,0.01963694842153,1056.3399128266,0,0.295080271,19.6969697,19.6969697,0.962062932,-3.0496006,581.507796,-174.742115,-3.0496006,2.93850443,0,1,0.523,0,-0.508012084,-0.174,0.348,0,-0.263817938,-0.659544845,-0.659950088,0,0,0.113514844,-1,27.3943926,0,16.7361995,-16.7361995,0,-16.7361995,-0.292046682,-0.13030421,-0.638316294,0,0,0,-100,-99.0942709,-10.8445402,-24.8707798,0,0,0,-0,0,0,0.002,0,0,0,0,0,0,0,0,0,0,0,-825,-1.5,1.29953,29.0392,0,-0,-0,-0,0,130,130,0.00158600681450464607,0.000145900052069798013,20926703.1037189737,5.14232431690481206
4.8,5.044274638795562,1.574734805162346,7.277415206865681,-0.9478247927286365,-0.615145126560365,2.012715038930577,5.048165918790147,1.574075128198638,7.278785998520815,13.4988548,3288806.623,108.243533429,1563.31603446,107.7504104913175,6.609569197437011,7.92623259397768,-6.479435269854322,1.960709254851466,-0.276287191023787,-6.653341087428071,11.8881203989917,-9.845287495637894,-0.1595771831864395,-0.6020257237567623,-29.84167832928398,107.7504104913175,6.609569197437011,7.92623259397768,12.8393049103193,1559.937917835456,101.911080615954,13.38945462602666,33.93400479847717,101.9110806159539,101.9107009697007,33.93396848472921,-13.39243592101904, 2095.734879,-10.78165492, 13.55483334,-10.78165492, 1505.011878, 3.979907608, 13.55483334, 3.979907608, 3150.439301,77.08075536,2480,45.48951612903226,4.22741935483871,35.42701612903226,1057.7111725621,1057.7111725623,29.77378092816261,12.49582189496654,17.45581989016574,0.9538124953505611,0.2364684438230161,0.142712587318251,0.118141932479486,0.7753518514918287,0.0836667018609801,-0.5735451227456834,0.2507496392071938,0.7753079557330901,0.08376707714698982,-0.5735304713891891,0.2508853302832221,4.2071595956814,3.5007740265241,0.0016135114941191,0.0016243851962735,0.00015539223989842,20926702.72641789,7381.552043621406,589.3187557536097,20926704.02820175,56.75544412305499,589.3187557536097,0.020054755834754,1057.7111725623,0,0.307661531,19.6969697,19.6969697,0.962014915,-3.04558186,592.015294,-174.51184,-3.04558186,2.92994192,0,1,0.523,0,-0.519650508,-0.174,0.348,0,-0.262176966,-0.655442415,-0.655855129,0,0,0.121184766,-1,27.9479548,0,17.4571057,-17.4571057,0,-17.4571057,-0.304626495,-0.138501008,-0.658151516,0,0,0,-100,-99.1804629,-10.8526127,-24.2450486,0,0,0,-0,0,0,0.002,0,0,0,0,0,0,0,0,0,0,0,-825,-1.5,1.29953,29.0342,0,-0,-0,-0,0,130,130,0.00161404773319003773,0.000155048214123353783,20926704.4764811806,5.04816591879014709
4.9,4.949378984366783,1.514585740149934,7.482634736517696,-0.9478505021202063,-0.5850901846537784,2.097919203655174,4.953257811179767,1.51388811979773,7.484021939406089,13.34274603,3269694.56,107.617888179,1564.43615321,107.1115135167919,6.807074926664242,7.899193584763978,-6.293341498182137,1.953117388587279,-0.2730459268521024,-7.033386618564684,11.95134232645249,-9.857412427704327,-0.161006647194226,-0.6167295929152189,-29.54640640508713,107.1115135167919,6.807074926664242,7.899193584763978,12.15486956536496,1561.129940824972,100.9259355891325,12.71707225686927,35.12607941226182,100.9259355891325,100.9255687995082,35.12604282372361,-12.72008389305464, 2095.734879,-10.78165492, 13.55483334,-10.78165492, 1505.011878, 3.979907608, 13.55483334, 3.979907608, 3150.439301,77.08075536,2480,45.48951612903226,4.22741935483871,35.42701612903226,1059.0171150044,1059.0171150063,30.43084522828911,12.25997974691043,18.18807708938301,0.9517983117250651,0.241382017863455,0.1429903445052409,0.1239695794449389,0.77412386442097,0.08302022899588184,-0.5719246413257837,0.258344902709128,0.7740776969887374,0.08312240590667683,-0.5719098000685429,0.2584832010914009,4.2177783562594,3.6265086255195,0.0016412790623945,0.0016523398937677,0.00016484615684908,20926703.9764433,7537.605383893349,599.46061665907,20926705.33384454,60.20839543721104,599.46061665907,0.020472563247978,1059.0171150063,-6.541301955406e-09,0.32044183,19.6969697,19.6969697,0.961969187,-3.0414907,602.445931,-174.277417,-3.0414907,2.92125277,0,1,0.523,0,-0.531118443,-0.174,0.348,0,-0.260520893,-0.651302232,-0.651716295,0,0,0.12271875,-1,28.4918899,0,18.1894168,-18.1894168,0,-18.1894168,-0.317405324,-0.146916432,-0.678034875,0,0,0,-100,-99.2584526,-10.8598503,-23.5799342,0,0,0,-0,0,0,0.002,0,0,0,0,0,0,0,0,0,0,0,-825,-1.5,1.29953,29.0294,0,-0,-0,-0,0,130,130,0.00164181934112592447,0.000164522070738192086,20926705.783780124,4.95325781117976671
5,4.855089108869833,1.457513525047917,7.696117262004861,-0.9347584540419974,-0.5534217571710354,2.177266605054249,4.858954823130953,1.456776624438284,7.697520662944501,13.19243263,3251187.358,107.011934265,1565.56298141,106.4919579390371,7.002970777334841,7.87244369088895,-6.092505786274097,1.927629318007313,-0.2699612796135575,-7.401895624511152,12.00913011316053,-9.868571648401828,-0.1626025852984327,-0.6310545660555208,-29.26044979589704,106.4919579390371,7.002970777334841,7.87244369088895,11.43300554028794,1562.328008310271,99.93962977236258,12.00728951677957,36.32422710103265,99.93962977236255,99.93927764923998,36.32419050479098,-12.010330644234, 2095.734879,-10.78165492, 13.55483334,-10.78165492, 1505.011878, 3.979907608, 13.55483334, 3.979907608, 3150.439301,77.08075536,2480,45.48951612903226,4.22741935483871,35.42701612903226,1060.2539425679,1060.2539425733,31.07782683501493,12.00027341123271,18.93215670397644,0.9497288319492376,0.2462341449493881,0.1431560028809579,0.1299624963769449,0.7727775106671636,0.0822134403294074,-0.5703443214013478,0.2660135791299021,0.7727290027857933,0.08231741437220823,-0.5703293241773871,0.2661544542706592,4.2279137530549,3.7521759892087,0.001668776746163,0.0016800228879759,0.00017462729819616,20926705.15614412,7693.778233216225,609.5039042181402,20926706.57036946,63.78086238802916,609.5039042181402,0.020890370661202,1060.2539425733,-6.5413019554042e-09,0.333428469,19.6969697,19.6969697,0.961925881,-3.0373282,612.800701,-174.038906,-3.0373282,2.91242864,0,1,0.523,0,-0.542410403,-0.174,0.348,0,-0.258873474,-0.647183685,-0.647593292,0,0,0.142660547,-1,29.0262325,0,18.9335513,-18.9335513,0,-18.9335513,-0.33039047,-0.155549705,-0.697960108,0,0,0,-100,-99.3290205,-10.8663426,-22.8766733,0,0,0,-0,0,0,0.002,0,0,0,0,0,0,0,0,0,0,0,-825,-1.5,1.29953,29.0247,0,-0,-0,-0,0,130,130,0.00166932130492353985,0.000174323376493645252,20926707.021816384,4.85895482313095251
5.1,4.762674986217064,1.403693945251278,7.917219103677636,-0.9094885945563543,-0.5198243105969773,2.249528670751641,4.766526867464275,1.402916388342775,7.918638511852166,13.04815974,3233325.764,106.427008244,1566.69607764,105.8932167415821,7.195524279269538,7.845964712263328,-5.876967716420769,1.885536944843702,-0.2670771551366258,-7.758789529281238,12.0621838349418,-9.879171200969497,-0.1643440964123114,-0.6448438985802091,-28.9841108332178,105.8932167415821,7.195524279269538,7.845964712263328,10.67487096053643,1563.531611801024,98.95223960232642,11.26126451705217,37.5279400308635,98.9522396023264,98.95190396523974,37.52790372127321,-11.26433432299212, 2095.734879,-10.78165492, 13.55483334,-10.78165492, 1505.011878, 3.979907608, 13.55483334, 3.979907608, 3150.439301,77.08075536,2480,45.48951612903226,4.22741935483871,35.42701612903226,1061.4179729819,1061.4179729843,31.71450997667227,11.71638131868097,19.68843720802602,0.9476004010870001,0.2510262562157904,0.1432090821865319,0.1361266224121201,0.7713098661039498,0.08124314814848116,-0.5688019180667199,0.2737608798445303,0.7712589472260831,0.08134891485276773,-0.5687868011564022,0.2739042993570168,4.2374832670225,3.8767218762054,0.0016960042396181,0.0017074338710348,0.00018473725565671,20926706.26183533,7850.071170031494,619.4485065120531,20926707.73409432,67.47342630808271,619.4485065120531,0.021308178074426,1061.4179729843,0,0.346628054,19.6969697,19.6969697,0.961885126,-3.03309537,623.080627,-173.796364,-3.03309537,2.90346189,0,1,0.523,0,-0.55352262,-0.174,0.348,0,-0.25725701,-0.643142524,-0.643542263,0,0,0.139592578,-1,29.5510728,0,19.6898875,-19.6898875,0,-19.6898875,-0.343588537,-0.164400433,-0.717923053,0,0,0,-100,-99.392873,-10.8721709,-22.1365053,0,0,0,-0,0,0,0.002,0,0,0,0,0,0,0,0,0,0,0,-825,-1.5,1.29953,29.0201,0,-0,-0,-0,0,130,130,0.00169655331442721143,0.000184453739276684578,20926708.1869059838,4.76652686746427534
5.2,4.67330606802024,1.353334376463525,8.145183066825505,-0.8731164559608577,-0.4839828646257227,2.313680003826943,4.67714333112816,1.352514758394867,8.146618316461154,12.91016463,3216150.075,105.864432294,1567.8350679,105.3167557869797,7.383138528297906,7.819734062491136,-5.646833281566343,1.828264249839034,-0.2644324973055454,-8.104050260289402,12.11120746942528,-9.88963708532164,-0.1662197697718751,-0.6579599618504174,-28.71767013207816,105.3167557869797,7.383138528297906,7.819734062491136,9.881628737956959,1564.740313100792,97.96379992197141,10.48016016375448,38.73678061765654,97.96379992197139,97.96348259669291,38.73674491687255,-10.48325787162722, 2095.734879,-10.78165492, 13.55483334,-10.78165492, 1505.011878, 3.979907608, 13.55483334, 3.979907608, 3150.439301,77.08075536,2480,45.48951612903226,4.22741935483871,35.42701612903226,1062.5056400523,1062.5056400528,32.34076682656924,11.40802263812736,20.45725073860374,0.9454088384679701,0.2557605795762835,0.1431494703874184,0.142467130276597,0.7697178952373599,0.08010727007555921,-0.5672945542915615,0.2815920377133354,0.7696644929638655,0.08021482484048444,-0.5672793561585249,0.2817379673080211,4.2464005099502,3.9991368391465,0.0017229612522366,0.0017345725504679,0.00019517749152716,20926707.28994801,8006.484725443068,629.2943172026595,20926708.82145301,71.28662125582287,629.2943172026595,0.02172598548765,1062.5056400528,-6.5413019554004e-09,0.360046381,19.6969697,19.6969697,0.961847045,-3.02879322,633.286761,-173.549851,-3.02879322,2.89434571,0,1,0.523,0,-0.564452864,-0.174,0.348,0,-0.255692066,-0.639230165,-0.639615082,0,0,0.154932422,-1,30.0665451,0,20.4587576,-20.4587576,0,-20.4587576,-0.357005321,-0.173468539,-0.737921403,0,0,0,-100,-99.4506491,-10.8774091,-21.360667,0,0,0,-0,0,0,0.002,0,0,0,0,0,0,0,0,0,0,0,-825,-1.5,1.29953,29.0157,0,-0,-0,-0,0,130,130,0.00172351507136195748,0.000194914639000016391,20926709.2754811011,4.67714333112815961
5.3,4.588020604475759,1.306652797130229,8.379157712068203,-0.8271790468328594,-0.4461031577550151,2.368876973987078,4.591842396352384,1.305789695266184,8.38060866536812,12.77867656,3199700.02,105.325510347,1568.9796312,104.7640249459508,7.564363079322593,7.793755078555233,-5.402315219580943,1.757318405337209,-0.2615048603664789,-8.438206219648052,12.15661982136853,-9.900248771971185,-0.1682678654110122,-0.6702847393096898,-28.46079988829139,104.7640249459508,7.564363079322593,7.793755078555233,9.054415214655895,1565.953729769777,96.97431052032842,9.665112799011778,39.95036700188668,96.97431052032839,96.97401333645414,39.9503322604351,-9.668237667650764, 2095.734879,-10.78165492, 13.55483334,-10.78165492, 1505.011878, 3.979907608, 13.55483334, 3.979907608, 3150.439301,77.08075536,2480,45.48951612903226,4.22741935483871,35.42701612903226,1063.5134930462,1063.5134930444,32.95654575206279,11.07496695078688,21.23887859142369,0.9431494620323402,0.2604400135651372,0.1429774831212005,0.148988358345963,0.7679985104574883,0.0788047879042605,-0.5658186960997669,0.289512169834712,0.7679425504835342,0.07891412582974118,-0.5658034572156692,0.2896605732649311,4.254592223453,4.1184659511112,0.001749647497895,0.0017614386382273,0.0002059493566053,20926708.23702865,8163.019389766996,639.0412315576002,20926709.82899487,75.22094056128208,639.0412315576002,0.022143792900874,1063.5134930444,-3.2706509776993e-09,0.373688361,19.6969697,19.6969697,0.96181176,-3.02442272,643.420177,-173.299422,-3.02442272,2.88507423,0,1,0.523,0,-0.575200233,-0.174,0.348,0,-0.254196983,-0.635492457,-0.635858235,0,0,0.150330469,-1,30.5728116,0,21.2404431,-21.2404431,0,-21.2404431,-0.370645732,-0.182754213,-0.757954446,0,0,0,-100,-99.5029271,-10.8821242,-20.5503619,0,0,0,-0,0,0,0.002,0,0,0,0,0,0,0,0,0,0,0,-825,-1.5,1.29953,29.0114,0,-0,-0,-0,0,130,130,0.00175020627828863045,0.000205707445079662512,20926710.2840893865,4.59184239635238356
5.4,4.507748332536503,1.263879076123594,8.618218034665222,-0.7723363620418898,-0.4054932687728869,2.414503973614526,4.511553729208262,1.262971061580744,8.619684584771775,12.65391672,3184014.654,104.811524397,1570.12951622,104.2364548949412,7.737900040522188,7.768012642727271,-5.143594094633426,1.674242178163015,-0.2591095785932183,-8.760725636269349,12.19944302851083,-9.911670233936627,-0.1704384075752647,-0.6817190687984259,-28.21447058812144,104.2364548949412,7.737900040522188,7.768012642727271,8.194368963535499,1567.171552458021,95.98372356289218,8.817261010812759,41.16839037161027,95.98372356289221,95.98344835064567,41.16835696880739,-8.820412333195339, 2095.734879,-10.78165492, 13.55483334,-10.78165492, 1505.011878, 3.979907608, 13.55483334, 3.979907608, 3150.439301,77.08075536,2480,45.48951612903226,4.22741935483871,35.42701612903226,1064.4381940551,1064.4381940543,33.56185811467228,10.71704090701664,22.03354731132224,0.9408171270969717,0.2650679912991204,0.1426938939296606,0.1556937570515944,0.7661486208283613,0.07733568930438901,-0.5643701586042913,0.2975261434556329,0.7660900269179967,0.07744680501140622,-0.5643549212656369,0.2976769824718821,4.2619747743347,4.2338163308946,0.0017760626848028,0.0017880318405605,0.00021705410572342,20926709.0997366,8319.67561820781,648.6891427740816,20926710.75338206,79.27684249923732,648.6891427740816,0.022561600314098,1064.4381940543,0,0.387557946,19.6969697,19.6969697,0.961779387,-3.01998481,653.481972,-173.045129,-3.01998481,2.87564255,0,1,0.523,0,-0.585764927,-0.174,0.348,0,-0.252788091,-0.631970228,-0.632312901,0,0,0.173340234,-1,31.0700569,0,22.0351703,-22.0351703,0,-22.0351703,-0.384513722,-0.192257852,-0.778022779,0,0,0,-100,-99.5502301,-10.8863769,-19.7067893,0,0,0,-0,0,0,0.002,0,0,0,0,0,0,0,0,0,0,0,-825,-1.5,1.29953,29.0072,0,-0,-0,-0,0,130,130,0.00177662662848351253,0.000216833431490605442,20926711.2093913257,4.51155372920826192
5.5,4.433317174453047,1.225308316860909,8.861384066145787,-0.7099516521325796,-0.361724431821854,2.450090471901903,4.437105178463421,1.224353966442898,8.862866140486544,12.53609806,3169132.225,104.32373023,1571.28455032,103.7354516092885,7.902605738345827,7.742453820290205,-4.870982928039227,1.580575742896187,-0.2572040834632894,-9.071778198423758,12.24031527613079,-9.924377578471745,-0.1727496212986189,-0.6921816541121389,-27.97885832720452,103.7354516092885,7.902605738345827,7.742453820290205,7.302645696575091,1568.393554516222,94.99193437071139,7.937760548438884,42.39062456704551,94.99193437071139,94.99168295732372,42.39059291128612,-7.940937650114427, 2095.734879,-10.78165492, 13.55483334,-10.78165492, 1505.011878, 3.979907608, 13.55483334, 3.979907608, 3150.439301,77.08075536,2480,45.48951612903226,4.22741935483871,35.42701612903226,1065.2765205093,1065.2765205109,34.15677046388176,10.33413794343299,22.84142952191441,0.9384062557116657,0.269648375383627,0.1423000036557315,0.1625858599440965,0.7641652019183248,0.07570091397217828,-0.5629440776948235,0.3056384811983389,0.7641038959026217,0.07581380140553122,-0.5629288858322525,0.3057917155165209,4.2684437794558,4.3443625442435,0.0018022064998308,0.0018143518422324,0.00022849292142167,20926709.87484652,8476.453839510021,658.237936255285,20926711.59139209,83.45475893559342,658.237936255285,0.022979407727323,1065.2765205109,0,0.401658151,19.6969697,19.6969697,0.961750038,-3.01548037,663.473255,-172.787025,-3.01548037,2.86604678,0,1,0.523,0,-0.596148106,-0.174,0.348,0,-0.251480033,-0.628700082,-0.629016227,0,0,0.181010156,-1,31.5584906,0,22.8431121,-22.8431121,0,-22.8431121,-0.398612305,-0.201980003,-0.798128109,0,0,0,-100,-99.5930316,-10.8902226,-18.8311603,0,0,0,-0,0,0,0.002,0,0,0,0,0,0,0,0,0,0,0,-825,-1.5,1.29953,29.0032,0,-0,-0,-0,0,130,130,0.0018027757901567373,0.000228293800048617732,20926712.0481627174,4.43710517846342167
5.6,4.365420133924405,1.191270457280225,9.107636344238147,-0.6413515367960833,-0.3145086083713299,2.475327972687939,4.369189672079651,1.190268365605748,9.109133908202253,12.42542523,3155090.056,103.863353336,1572.44461964,103.2623865063626,8.057489017283661,7.717031163376639,-4.584860795063731,1.477825389518852,-0.2557260198633422,-9.37155589233512,12.27985094350529,-9.938871477378679,-0.1752237711477346,-0.7016084743346939,-27.75413964307897,103.2623865063626,8.057489017283661,7.717031163376639,6.380382637729431,1569.619571784238,93.99878954412524,7.027748690631818,43.61690588304228,93.9987895441252,93.99856375137388,43.61687641215261,-7.030950928252707, 2095.734879,-10.78165492, 13.55483334,-10.78165492, 1505.011878, 3.979907608, 13.55483334, 3.979907608, 3150.439301,77.08075536,2480,45.48951612903226,4.22741935483871,35.42701612903226,1066.0253644958,1066.0253644979,34.74139436943495,9.926227359908744,23.66264669446267,0.9359108780162769,0.2741853293049357,0.1417977036696431,0.1696662749009402,0.762045369752768,0.07390226890973955,-0.5615348945749802,0.3138532639037313,0.7619812715540817,0.0740169211252585,-0.5615197935625056,0.3140088511897125,4.2738982645818,4.4493502963688,0.0018280785945866,0.001840398292507,0.0002402669329182,20926710.55924773,8633.354462890587,667.6874845250375,20926712.3399171,87.75510225591461,667.6874845250375,0.023397215140547,1066.0253644979,0,0.415991095,19.6969697,19.6969697,0.961723823,-3.01091025,673.395149,-172.525157,-3.01091025,2.85628396,0,1,0.523,0,-0.606351718,-0.174,0.348,0,-0.250285097,-0.625712742,-0.625999517,0,0,0.194816016,-1,32.0383287,0,23.6643897,-23.6643897,0,-23.6643897,-0.412943601,-0.21192131,-0.818273028,0,0,0,-100,-99.6317599,-10.8937114,-17.9246623,0,0,0,-0,0,0,0.002,0,0,0,0,0,0,0,0,0,0,0,-825,-1.5,1.29953,28.9994,0,-0,-0,-0,0,130,130,0.00182865339248277519,0.000240089698940266745,20926712.797294002,4.36918967207965103
5.7,4.304619959347623,1.162119766548658,9.355931352012684,-0.5678075474258328,-0.2636530456145403,2.490053073482459,4.30836988089741,1.161068558208484,9.3574444127684,12.32209454,3141924.422,103.431584875,1573.60966655,102.8185900310228,8.201706543079048,7.691703560358853,-4.285669168386701,1.367436275053386,-0.2546075524415308,-9.660264266961423,12.3186361617157,-9.955678094593932,-0.1778857140890402,-0.7099515351853818,-27.54049657642278,102.8185900310228,8.201706543079048,7.691703560358853,5.428697094527312,1570.849500180508,93.00408433579119,6.088342818915773,44.84713065991124,93.00408433579121,93.00388597767824,44.84710384146047,-6.091569578609429, 2095.734879,-10.78165492, 13.55483334,-10.78165492, 1505.011878, 3.979907608, 13.55483334, 3.979907608, 3150.439301,77.08075536,2480,45.48951612903226,4.22741935483871,35.42701612903226,1066.6817308553,1066.6817308562,35.31587571236238,9.493360811975272,24.49727239416526,0.9333246835484589,0.2786831865634729,0.1411895157572514,0.1769356867515162,0.7597864453003483,0.07194233403384291,-0.5601363638379746,0.322174039950453,0.7597194729834748,0.07205874297461427,-0.560121400306026,0.3223319358205864,4.2782418879615,4.5480985003216,0.0018536785717055,0.0018661707913458,0.00025237723290835,20926711.14994228,8790.37788417794,677.0376422210744,20926712.99596201,92.17827150106859,677.0376422210744,0.023815022553771,1066.6817308562,0,0.430558061,19.6969697,19.6969697,0.961700846,-3.00627522,683.248779,-172.25957,-3.00627522,2.84635203,0,1,0.523,0,-0.616378309,-0.174,0.348,0,-0.24921329,-0.623033225,-0.623288351,0,0,0.194816016,-1,32.5097866,0,24.4990769,-24.4990769,0,-24.4990769,-0.427508892,-0.222082469,-0.838460778,0,0,0,-100,-99.6668028,-10.8968888,-16.9884583,0,0,0,-0,0,0,0.002,0,0,0,0,0,0,0,0,0,0,0,-825,-1.5,1.29953,28.9957,0,-0,-0,-0,0,130,130,0.00185425901192963439,0.000252222239073028327,20926713.4537883513,4.30836988089740913
5.8,4.251355274137258,1.138225884842357,9.605215217372491,-0.4905229646287292,-0.2090481200871723,2.49422972358216,4.255084349447444,1.137124226464927,9.606743827723397,12.22629402,3129670.429,103.029577655,1574.77968641,102.4053455839843,8.334555669770882,7.666436547856687,-3.973908110873176,1.250771256035499,-0.2537805451986763,-9.938118497128475,12.35722283396805,-9.975347972534038,-0.1807619051351589,-0.7171774322019847,-27.33811619039809,102.4053455839843,8.334555669770882,7.666436547856687,4.448685309022313,1572.083292574792,92.00756015019853,5.120639269842587,46.0812521575295,92.00756015019854,92.00739103076107,46.08122848910288,-5.123889965426048, 2095.734879,-10.78165492, 13.55483334,-10.78165492, 1505.011878, 3.979907608, 13.55483334, 3.979907608, 3150.439301,77.08075536,2480,45.48951612903226,4.22741935483871,35.42701612903226,1067.2427351139,1067.2427351129,35.88038493933698,9.035677121931398,25.3453363414895,0.9306410772234615,0.2831463287740095,0.1404786190033696,0.1843938705300745,0.7573860130667354,0.06982436661011153,-0.5587415740418525,0.3306037484294524,0.7573160829160214,0.06994252287453627,-0.5587267956964435,0.3307639064672317,4.2813838885128,4.6399999232673,0.0018790059704461,0.0018916688749068,0.0002648248935906,20926711.64404292,8947.524491668462,686.2882408343119,20926713.55664239,96.72465822046797,686.2882408343119,0.024232829966995,1067.2427351129,-3.2706509776945e-09,0.445359569,19.6969697,19.6969697,0.961681207,-3.00157601,693.035275,-171.990305,-3.00157601,2.83624973,0,1,0.523,0,-0.626230854,-0.174,0.348,0,-0.248272444,-0.620681111,-0.62090284,0,0,0.19635,-1,32.9730734,0,25.3472033,-25.3472033,0,-25.3472033,-0.442308698,-0.232464186,-0.85869504,0,0,0,-100,-99.6985109,-10.8997962,-16.0236862,0,0,0,-0,0,0,0.002,0,0,0,0,0,0,0,0,0,0,0,-825,-1.5,1.29953,28.9921,0,-0,-0,-0,0,130,130,0.00187959215794674772,0.000264692509673316646,20926714.0147596113,4.25508434944744351
5.9,4.205947925637038,1.119966000242723,9.854435628792583,-0.4106217574289848,-0.150657054260947,2.48793137631896,4.209654845403854,1.118812612362076,9.855979890976819,12.1382034,3118361.897,102.658442146,1575.95472377,102.0238838482878,8.455465465407009,7.64120227083782,-3.650132149808031,1.129095525042594,-0.2531785192681006,-10.20534028316704,12.39612322234336,-9.99845427975797,-0.1838795199040596,-0.7232657949491388,-27.14718929893354,102.0238838482878,8.455465465407009,7.64120227083782,3.441421654742528,1573.320955088625,91.00890218924098,4.125712532828124,47.31927685706004,91.00890218924098,91.0087641004815,47.31925686649632,-4.128986603867188, 2095.734879,-10.78165492, 13.55483334,-10.78165492, 1505.011878, 3.979907608, 13.55483334, 3.979907608, 3150.439301,77.08075536,2480,45.48951612903226,4.22741935483871,35.42701612903226,1067.7056013718,1067.7056013777,36.43510831367885,8.553405576954919,26.20682909131001,0.9278532388791765,0.287579073635665,0.1396688650163739,0.1920397137399256,0.7548419739652098,0.06755220629416935,-0.5573429790497083,0.3391446556693646,0.7547690005864226,0.06767209889862021,-0.5573284344996844,0.3393070274582581,4.2832398403185,4.7245206459159,0.0019040602516202,0.0019168920003722,0.00027761098175705,20926712.03877093,9104.79467164117,695.4390832048412,20926714.0191824,101.39465198363,695.4390832048412,0.024650637380219,1067.7056013777,0,0.460395454,19.6969697,19.6969697,0.961665004,-2.99681326,702.755763,-171.7174,-2.99681326,2.82597659,0,1,0.523,0,-0.635912603,-0.174,0.348,0,-0.247468341,-0.618670853,-0.618857937,0,0,0.219359766,-1,33.4283877,0,26.2087595,-26.2087595,0,-26.2087595,-0.457342854,-0.24306714,-0.878979743,0,0,0,-100,-99.7272015,-10.9024713,-15.0314579,0,0,0,-0,0,0,0.002,0,0,0,0,0,0,0,0,0,0,0,-825,-1.5,1.29953,28.9887,0,-0,-0,-0,0,130,130,0.00190465225803516523,0.000277501592974286465,20926714.4774302132,4.20965484540385404
6,4.168611346433544,1.107717949830083,10.10255198123128,-0.3291395733509373,-0.08850790131350279,2.471323551164198,4.172294721480151,1.106511618463703,10.10411205057429,12.05799419,3108031.24,102.319242586,1577.13486821,101.6753775401208,8.563986459610195,7.615979342398376,-3.314945949127594,1.003566668718459,-0.2527367763662447,-10.4621550813095,12.4358053246088,-10.02559068769023,-0.1872656476234683,-0.7282076767070331,-26.96790906201938,101.6753775401208,8.563986459610195,7.615979342398376,2.407958124133243,1574.562542892687,90.00773729345265,3.104614738070501,48.56126025950419,90.00773729345265,90.00763201337861,48.56124450509999,-3.107911647786859, 2095.734879,-10.78165492, 13.55483334,-10.78165492, 1505.011878, 3.979907608, 13.55483334, 3.979907608, 3150.439301,77.08075536,2480,45.48951612903226,4.22741935483871,35.42701612903226,1068.0676600374,1068.0676600371,36.98024017709415,8.046867877489582,27.08170713767194,0.9249541853362945,0.2919855734603455,0.1387647827457747,0.1998712460295953,0.7521525926066465,0.0651301823975511,-0.5559324385072306,0.3477983044687912,0.7520764890522121,0.0652517985363137,-0.5559181771011904,0.3479628396411945,4.2837323372275,4.8011985709768,0.0019288407819032,0.0019418395301537,0.00029073657280059,20926712.33145391,9262.188813476583,704.4899377919588,20926714.38091251,106.1886454960677,704.4899377919588,0.025068444793443,1068.0676600371,0,0.475664957,19.6969697,19.6969697,0.96165233,-2.99198758,712.411362,-171.440888,-2.99198758,2.81553277,0,1,0.523,0,-0.645426949,-0.174,0.348,0,-0.246804858,-0.617012144,-0.617163794,0,0,0.22089375,-1,33.8759133,0,27.083702,-27.083702,0,-27.083702,-0.4726106,-0.253891953,-0.899318903,0,0,0,-100,-99.7531619,-10.9049482,-14.0128598,0,0,0,-0,0,0,0.002,0,0,0,0,0,0,0,0,0,0,0,-825,-1.5,1.29953,28.9855,0,-0,-0,-0,0,130,130,0.0019294386422419403,0.000290650577849182177,20926714.8391289338,4.17229472148015113
